loggingTime,loggingSample,locationTimestamp_since1970,locationLatitude,locationLongitude,locationAltitude,locationHeadingTimestamp_since1970,locationHeadingX,locationHeadingY,locationHeadingZ,locationTrueHeading,locationMagneticHeading,accelerometerTimestamp_sinceReboot,accelerometerAccelerationX,accelerometerAccelerationY,accelerometerAccelerationZ,gyroTimestamp_sinceReboot,gyroRotationX,gyroRotationY,gyroRotationZ,motionTimestamp_sinceReboot,motionYaw,motionRoll,motionPitch,motionRotationRateX,motionRotationRateY,motionRotationRateZ,motionUserAccelerationX,motionUserAccelerationY,motionUserAccelerationZ,motionQuaternionX,motionQuaternionY,motionQuaternionZ,motionQuaternionW,motionGravityX,motionGravityY,motionGravityZ,IP_en0,IP_pdp_ip0,deviceOrientation,state
2015-04-09 17:44:34.763,1,1428590673.838302,51.7356636515369,39.26763989034972,92.41064,1428590674.737783,-38.00848388671875,21.12475204467773,-50.43582916259766,64.48478698730469,53.76145935058594,619799.7032226668,0.0398712158203125,-0.1982879638671875,-0.9674530029296875,619799.7003336668,-0.1503666025197269,0.2692067040550958,0.005688512088409253,619799.6786656667,2.744964631768451,0.07255753193946517,0.1865199900699231,-0.1184502616524696,0.08116035908460617,0.01490638498216867,-0.003426456823945045,-0.02777068503201008,0.08514203131198883,-0.01707029939156441,0.09835445763925556,0.9761629129502897,0.1927199338978413,0.0712365135550499,-0.1854403764009476,-0.9800699949264526,192.168.1.24,100.109.58.95,5,0
2015-04-09 17:44:34.777,2,1428590673.838302,51.7356636515369,39.26763989034972,92.41064,1428590674.737783,-38.00848388671875,21.12475204467773,-50.43582916259766,64.48478698730469,53.76145935058594,619799.7227136667,0.0500335693359375,-0.1865081787109375,-1.009674072265625,619799.7220016667,-0.1690316333356563,0.2198234416456475,0.009906160306767742,619799.7003336668,2.745352951126561,0.07534837133751406,0.1846421831838451,-0.06907019764184952,0.1799777746200562,0.01514257676899433,-0.03899387270212173,-0.009489906020462513,0.04022570699453354,-0.01863867557047022,0.09770442480973678,0.9762538191364898,0.1924446044112643,0.07399753481149673,-0.1835948079824448,-0.9802128672599792,192.168.1.24,100.109.58.95,5,0
2015-04-09 17:44:34.811,3,1428590673.838302,51.7356636515369,39.26763989034972,92.41064,1428590674.776776,-37.87159729003906,21.39851760864258,-50.30269622802734,64.4132080078125,53.68988037109375,619799.7421846667,0.0503997802734375,-0.1768798828125,-1.014450073242188,619799.7436686667,-0.2257508392838369,-0.1041748723606296,-0.03811569415343207,619799.7220016667,2.745963652476088,0.0787846266281054,0.1838669679966691,-0.08773498982191086,0.1305923014879227,0.01936084404587746,-0.02000348456203938,-0.008054733276367188,-0.01529742684215307,-0.02042308036875423,0.09765084937877817,0.9763109698233965,0.1920002593914045,0.07737652957439423,-0.1828327178955078,-0.9800944328308105,192.168.1.24,100.109.58.95,5,0
2015-04-09 17:44:34.813,4,1428590673.838302,51.7356636515369,39.26763989034972,92.41064,1428590674.776776,-37.87159729003906,21.39851760864258,-50.30269622802734,64.4132080078125,53.68988037109375,619799.7616246667,0.071929931640625,-0.1901397705078125,-1.006576538085938,619799.7653666667,-0.2204681929455557,-0.135447307776994,-0.03583176720258012,619799.7436686667,2.746026252918178,0.07677333061216948,0.1807104028328018,-0.1444546282291412,-0.1934055238962173,-0.02866106294095516,-0.02504922449588776,0.002848570700734854,-0.03363147005438805,-0.01975831273990217,0.09591823559207224,0.9764659225088764,0.1921551543349236,0.07544900476932526,-0.1797284483909607,-0.9808186292648315,192.168.1.24,100.109.58.95,5,0
2015-04-09 17:44:34.818,5,1428590673.838302,51.7356636515369,39.26763989034972,92.41064,1428590674.776776,-37.87159729003906,21.39851760864258,-50.30269622802734,64.4132080078125,53.68988037109375,619799.7810946667,0.0518341064453125,-0.1688232421875,-0.9972686767578125,619799.7870336667,-0.2345027855741643,-0.09331796354470354,-0.0163443522420343,619799.7653666667,2.74554974251449,0.07167954527340191,0.1773706802315154,-0.1391742527484894,-0.224680170416832,-0.0263772327452898,0.001435368089005351,-0.01369765307754278,-0.02479311265051365,-0.01758079127790582,0.09380406593385408,0.9766017613368538,0.1927192588873461,0.07049456238746643,-0.1764421164989471,-0.9817834496498108,192.168.1.24,100.109.58.95,5,0
2015-04-09 17:44:34.822,6,1428590673.838302,51.7356636515369,39.26763989034972,92.41064,1428590674.816058,-38.00848388671875,21.05630874633789,-50.43582916259766,64.69589233398438,53.97256469726562,619799.8005636667,0.0518646240234375,-0.1834869384765625,-0.983245849609375,619799.7870336667,-0.2345027855741643,-0.09331796354470354,-0.0163443522420343,619799.7653666667,2.74554974251449,0.07167954527340191,0.1773706802315154,-0.1391742527484894,-0.224680170416832,-0.0263772327452898,0.001435368089005351,-0.01369765307754278,-0.02479311265051365,-0.01758079127790582,0.09380406593385408,0.9766017613368538,0.1927192588873461,0.07049456238746643,-0.1764421164989471,-0.9817834496498108,192.168.1.24,100.109.58.95,5,0
2015-04-09 17:44:34.835,7,1428590673.838302,51.7356636515369,39.26763989034972,92.41064,1428590674.816058,-38.00848388671875,21.05630874633789,-50.43582916259766,64.69589233398438,53.97256469726562,619799.8200486667,0.0979461669921875,-0.20611572265625,-0.9521331787109375,619799.8087006666,-0.2246445621670179,-0.01989274807845588,-0.02295058964208486,619799.7870336667,2.745545927506579,0.06710447523310281,0.1740712288079456,-0.1532091051340103,-0.1825505346059799,-0.00688984664157033,-0.01420668419450521,0.004370234906673431,-0.01459750439971685,-0.01567443906845904,0.09175361381452989,0.9767700597156814,0.1930177109876204,0.06604079157114029,-0.1731934696435928,-0.9826712012290955,192.168.1.24,100.109.58.95,5,0
2015-04-09 17:44:34.854,8,1428590674.828912,51.73566398681303,39.26762790422818,92.93591,1428590674.836611,-38.38491821289062,21.29585266113281,-50.40254974365234,64.76182556152344,54.03850173950195,619799.8394886667,0.0861663818359375,-0.19915771484375,-0.9463653564453125,619799.8303686667,-0.2467205697071208,-0.001884719103449077,-0.01709483103721863,619799.8087006666,2.745683316019147,0.06354797431030193,0.1706644974597923,-0.1433519870042801,-0.1091286987066269,-0.01349564455449581,-0.01071799173951149,-0.01364970859140158,0.0002371097798459232,-0.01428189918404167,0.08974713177224861,0.9769427389166297,0.1931951463480342,0.06258261948823929,-0.1698372364044189,-0.9834829568862915,192.168.1.24,100.109.58.95,5,0
2015-04-09 17:44:34.888,9,1428590674.828912,51.73566398681303,39.26762790422818,92.93591,1428590674.874115,-38.65869140625,21.15896987915039,-50.93508148193359,65.05391693115234,54.33058929443359,619799.8589756667,0.0855712890625,-0.2003936767578125,-0.95379638671875,619799.8520366667,-0.2646265996123776,0.05349198733922257,0.01091603099212579,619799.8303686667,2.745457499022038,0.06244632421419433,0.1686988144224077,-0.1654220074415207,-0.09111455827951431,-0.007639372255653143,0.03461053222417831,-0.04111511632800102,0.0420185886323452,-0.01392880954055527,0.08868307263504398,0.9770042334890816,0.1934012115712204,0.06151983886957169,-0.1678997725248337,-0.9838826060295105,192.168.1.24,100.109.58.95,5,0
2015-04-09 17:44:34.893,10,1428590674.828912,51.73566398681303,39.26762790422818,92.93591,1428590674.874115,-38.65869140625,21.15896987915039,-50.93508148193359,65.05391693115234,54.33058929443359,619799.8784446667,0.0973663330078125,-0.18060302734375,-0.944915771484375,619799.8737036667,-0.2462587775741011,0.116153504627697,0.02497725523163516,619799.8520366667,2.745896385854122,0.06100553697458876,0.1648665267329881,-0.18332839012146,-0.03573746606707573,0.0203714482486248,0.02578124403953552,-0.04199505224823952,0.03308240696787834,-0.01362433462262115,0.08667041377159158,0.9772014167737924,0.1933391009032005,0.06014099717140198,-0.1641206741333008,-0.9846052527427673,192.168.1.24,100.109.58.95,5,0
2015-04-09 17:44:34.912,11,1428590674.828912,51.73566398681303,39.26762790422818,92.93591,1428590674.874115,-38.65869140625,21.15896987915039,-50.93508148193359,65.05391693115234,54.33058929443359,619799.8979146667,0.0967254638671875,-0.167694091796875,-0.94366455078125,619799.8954016668,-0.2451719415332397,0.1245810778972527,0.02505342163881143,619799.8737036667,2.746623419847944,0.06207175107686464,0.1624391743756572,-0.1649071276187897,0.02700391784310341,0.03447920456528664,0.03180228173732758,-0.03848482295870781,0.03866145759820938,-0.01441706316384204,0.08558339506115722,0.9773540757931816,0.1929938893074185,0.06121529638767242,-0.1617257446050644,-0.9849352836608887,192.168.1.24,100.109.58.95,5,0
2015-04-09 17:44:34.931,12,1428590674.828912,51.73566398681303,39.26762790422818,92.93591,1428590674.913448,-38.7613525390625,22.01449584960938,-50.10299682617188,64.79299926757812,54.06967163085938,619799.9173546667,0.095916748046875,-0.1630859375,-0.9710845947265625,619799.9170696667,-0.242662178521949,0.1245528483896979,0.009327189085784516,619799.8954016668,2.747641167119768,0.06254652749552726,0.1589922723188828,-0.1638205498456955,0.03543178364634514,0.0345553383231163,0.03606092929840088,-0.0196094699203968,0.04380620643496513,-0.01503292394639826,0.08393874147364991,0.9775737884305618,0.1925559322663774,0.06171739101409912,-0.158323273062706,-0.9854565858840942,192.168.1.24,100.109.58.95,5,0
2015-04-09 17:44:34.968,13,1428590674.828912,51.73566398681303,39.26762790422818,92.93591,1428590674.953107,-38.7613525390625,22.76734924316406,-50.16956329345703,64.75594329833984,54.03261566162109,619799.9368446667,0.09246826171875,-0.1582183837890625,-0.974029541015625,619799.9387366667,-0.2277535364235765,0.02823483387702008,-0.02508218377858428,619799.9170696667,2.748266192383327,0.06428543942944588,0.1557991265476923,-0.1613097637891769,0.03540877625346184,0.0188283808529377,0.03166021779179573,-0.007977376691997051,0.02585581317543983,-0.01622395585682238,0.08254180442553241,0.97773349348201,0.1922520468083755,0.06346306949853897,-0.1551695913076401,-0.9858472943305969,192.168.1.24,100.109.58.95,5,0
2015-04-09 17:44:34.971,14,1428590674.828912,51.73566398681303,39.26762790422818,92.93591,1428590674.953107,-38.7613525390625,22.76734924316406,-50.16956329345703,64.75594329833984,54.03261566162109,619799.9562946667,0.0775299072265625,-0.1571502685546875,-0.984283447265625,619799.9604046667,-0.2020745382447054,0.02101713469068733,-0.05384672039642113,619799.9387366667,2.748431445588626,0.06392469840165797,0.1524763084941077,-0.1464015543460846,-0.06090875342488289,-0.01558104250580072,0.0293282400816679,-0.006332209799438715,0.01234965957701206,-0.01638180041843985,0.08088285465627998,0.9778673360990005,0.1922630318817377,0.06314001977443695,-0.1518861800432205,-0.9863792061805725,192.168.1.24,100.109.58.95,5,0
2015-04-09 17:44:34.990,15,1428590674.828912,51.73566398681303,39.26762790422818,92.93591,1428590674.953107,-38.7613525390625,22.76734924316406,-50.16956329345703,64.75594329833984,54.03261566162109,619799.9757636667,0.0676727294921875,-0.1684722900390625,-1.000823974609375,619799.9820716667,-0.1851144631586448,0.0007091997982881011,-0.00522831785204356,619799.9604046667,2.747648413758927,0.0631086376500318,0.1500788403573867,-0.1207215711474419,-0.06812295317649841,-0.04434593766927719,0.01517206616699696,-0.007634181529283524,0.00250753341242671,-0.0161877707656985,0.07963959926404941,0.9778799855898412,0.192733557248142,0.06235783919692039,-0.1495160907506943,-0.9867909550666809,192.168.1.24,100.109.58.95,5,0
2015-04-09 17:44:35.010,16,1428590674.828912,51.73566398681303,39.26762790422818,92.93591,1428590674.992972,-39.30889892578125,23.10955810546875,-49.96986389160156,64.74626159667969,54.02293395996094,619799.9952356667,0.0495147705078125,-0.1800994873046875,-1.000411987304688,619799.9820716667,-0.1851144631586448,0.0007091997982881011,-0.00522831785204356,619799.9604046667,2.747648413758927,0.0631086376500318,0.1500788403573867,-0.1207215711474419,-0.06812295317649841,-0.04434593766927719,0.01517206616699696,-0.007634181529283524,0.00250753341242671,-0.0161877707656985,0.07963959926404941,0.9778799855898412,0.192733557248142,0.06235783919692039,-0.1495160907506943,-0.9867909550666809,192.168.1.24,100.109.58.95,5,0
2015-04-09 17:44:35.047,17,1428590674.828912,51.73566398681303,39.26762790422818,92.93591,1428590675.032455,-39.03512573242188,23.58864593505859,-50.50239562988281,64.7125244140625,53.98919677734375,619800.0147056667,0.064605712890625,-0.203399658203125,-0.99139404296875,619800.0037456667,-0.1468107498322531,0.01772413600280436,0.02457618317146923,619799.9820716667,2.747462396004629,0.06128367700409697,0.1476120255982649,-0.1037617474794388,-0.08843059837818146,0.004272433929145336,0.007093441672623158,-0.02139574103057384,-0.01355570368468761,-0.01553154221555197,0.07826005203182104,0.9779589260991552,0.1929520000294959,0.06057928875088692,-0.1470765471458435,-0.9872682690620422,192.168.1.24,100.109.58.95,5,0
2015-04-09 17:44:35.049,18,1428590674.828912,51.73566398681303,39.26762790422818,92.93591,1428590675.032455,-39.03512573242188,23.58864593505859,-50.50239562988281,64.7125244140625,53.98919677734375,619800.0341756667,0.0729827880859375,-0.21624755859375,-0.983001708984375,619800.0254376667,-0.1515522418370302,0.01288677019878443,0.01961950775061375,619800.0037456667,2.748161353075785,0.05947560470981204,0.1463870873550816,-0.06545624136924744,-0.07141562551259995,0.03407754749059677,-0.009290031157433987,-0.0342346653342247,-0.01285669859498739,-0.01479535633551036,0.07748195179487519,0.9780805043239458,0.192707476861668,0.05880480259656906,-0.1458648145198822,-0.9875552654266357,192.168.1.24,100.109.58.95,5,0
2015-04-09 17:44:35.068,19,1428590674.828912,51.73566398681303,39.26762790422818,92.93591,1428590675.032455,-39.03512573242188,23.58864593505859,-50.50239562988281,64.7125244140625,53.98919677734375,619800.0536466667,0.057952880859375,-0.22381591796875,-0.979583740234375,619800.0470926667,-0.1973367746654544,0.01149526852921802,-0.0114004599944112,619800.0254376667,2.748931033784084,0.05821249282332042,0.1466222289892598,-0.0701906681060791,-0.07625003159046173,0.02912218682467937,0.01605303213000298,-0.05681393295526505,-0.001190279726870358,-0.01418430198070625,0.07746967430031616,0.9781559912623655,0.1923749253376706,0.05755536630749702,-0.1460974514484406,-0.9875944852828979,192.168.1.24,100.109.58.95,5,0
2015-04-09 17:44:35.087,20,1428590674.828912,51.73566398681303,39.26762790422818,92.93591,1428590675.072213,-39.0693359375,23.69131469726562,-50.60224533081055,64.68068695068359,53.95736312866211,619800.0730946667,0.0521697998046875,-0.2317657470703125,-0.969512939453125,619800.0687726667,-0.2673097344106324,0.0004625910813467637,-0.01981578272295259,619800.0470926667,2.749307638319727,0.05647712471991138,0.144577669114149,-0.115954652428627,-0.07759943604469299,-0.001868398045189679,0.008671235293149948,-0.07699482142925262,0.002088188193738461,-0.01355080401761888,0.07630099736196994,0.9782714415944519,0.1923005982121996,0.05585818365216255,-0.1440745145082474,-0.987989068031311,192.168.1.24,100.109.58.95,5,0
2015-04-09 17:44:35.128,21,1428590674.828912,51.73566398681303,39.26762790422818,92.93591,1428590675.11185,-39.27467346191406,23.69131469726562,-50.60224533081055,64.64075469970703,53.91742706298828,619800.0925556667,0.0551300048828125,-0.2413787841796875,-0.9626312255859375,619800.0904396668,-0.2915604792968939,0.006402771892768505,-0.02620470617805268,619800.0687726667,2.749235358658124,0.05476217488988427,0.1435650830663364,-0.1859168410301208,-0.08863077312707901,-0.01028117351233959,0.003811690025031567,-0.08342903852462769,0.01366497203707695,-0.01280857802890659,0.07564162211326575,0.9783087811438393,0.1924219687816827,0.05417170748114586,-0.1430724263191223,-0.9882285594940186,192.168.1.24,100.109.58.95,5,0
2015-04-09 17:44:35.132,22,1428590674.828912,51.73566398681303,39.26762790422818,92.93591,1428590675.11185,-39.27467346191406,23.69131469726562,-50.60224533081055,64.64075469970703,53.91742706298828,619800.1120256667,0.0753936767578125,-0.2508087158203125,-0.954925537109375,619800.1121066667,-0.2703776959864037,0.05096784325804547,-0.03526877494813737,619800.0904396668,2.749257954910131,0.05290836815679159,0.1389853538023328,-0.2101678401231766,-0.08269029855728149,-0.01667012833058834,-0.001149978837929666,-0.09734729677438736,0.02356292121112347,-0.01235187281479697,0.07322437026224496,0.9784690926109226,0.192571694812177,0.0523737333714962,-0.1385383307933807,-0.9889712333679199,192.168.1.24,100.109.58.95,5,0
2015-04-09 17:44:35.146,23,1428590674.828912,51.73566398681303,39.26762790422818,92.93591,1428590675.11185,-39.27467346191406,23.69131469726562,-50.60224533081055,64.64075469970703,53.91742706298828,619800.1314736668,0.075836181640625,-0.25311279296875,-0.9678802490234375,619800.1337746667,-0.2001496054087961,0.05113189398119435,-0.04390327583439228,619800.1121066667,2.749002171860672,0.05200112503018436,0.1378584741040805,-0.1889708489179611,-0.03812306001782417,-0.02573108114302158,0.02390911988914013,-0.1133864894509315,0.03424809500575066,-0.01200924823016549,0.07258761787042349,0.9784853082748199,0.1927519576533152,0.05148455500602722,-0.1374222189188004,-0.9891736507415771,192.168.1.24,100.109.58.95,5,0
2015-04-09 17:44:35.165,24,1428590674.828912,51.73566398681303,39.26762790422818,92.93591,1428590675.151516,-39.47999572753906,24.30728912353516,-49.87001800537109,64.03577423095703,53.31245040893555,619800.1509676666,0.0705108642578125,-0.2565155029296875,-0.979156494140625,619800.1554566667,-0.09222260538835395,0.04055035602198252,-0.05810511497945783,619800.1337746667,2.748565808861352,0.0513794239534446,0.1345342914130267,-0.1187431216239929,-0.03795862197875977,-0.03436562418937683,0.02494342625141144,-0.1189839690923691,0.02177594602108002,-0.01201577574330401,0.07090503012645705,0.9785494788221977,0.1930518462301496,0.05089275538921356,-0.1341288238763809,-0.9896562099456787,192.168.1.24,100.109.58.95,5,0
2015-04-09 17:44:35.216,25,1428590674.828912,51.73566398681303,39.26762790422818,92.93591,1428590675.171942,-39.41156005859375,24.17040634155273,-49.93658447265625,64.07317352294922,53.34984970092773,619800.1704266667,0.07763671875,-0.2545166015625,-0.99444580078125,619800.1771396667,-0.04488624859274052,0.02984631265262703,-0.05625022328021764,619800.1554566667,2.747687590428959,0.05113834871568165,0.1367724606799077,-0.01080072671175003,-0.04853641614317894,-0.04856471344828606,0.01987216249108315,-0.120169073343277,0.010209652595222,-0.01164638661637798,0.07198116627679371,0.9783972818829947,0.193447233591473,0.05063870176672935,-0.1363464295864105,-0.9893661737442017,192.168.1.24,100.109.58.95,5,0
2015-04-09 17:44:35.219,26,1428590674.828912,51.73566398681303,39.26762790422818,92.93591,1428590675.210905,-39.41156005859375,24.17041015625,-50.06971740722656,63.95920562744141,53.23588180541992,619800.1898766668,0.0700225830078125,-0.2423248291015625,-1.00628662109375,619800.1771396667,-0.04488624859274052,0.02984631265262703,-0.05625022328021764,619800.1554566667,2.747687590428959,0.05113834871568165,0.1367724606799077,-0.01080072671175003,-0.04853641614317894,-0.04856471344828606,0.01987216249108315,-0.120169073343277,0.010209652595222,-0.01164638661637798,0.07198116627679371,0.9783972818829947,0.193447233591473,0.05063870176672935,-0.1363464295864105,-0.9893661737442017,192.168.1.24,100.109.58.95,5,0
2015-04-09 17:44:35.224,27,1428590674.828912,51.73566398681303,39.26762790422818,92.93591,1428590675.210905,-39.41156005859375,24.17041015625,-50.06971740722656,63.95920562744141,53.23588180541992,619800.2093466667,0.0562896728515625,-0.2372283935546875,-0.99261474609375,619800.1988176667,-0.05824146882726988,-0.03286900048986697,-0.1005513753814677,619800.1771396667,2.74664673184382,0.05009402789760951,0.1373408488689395,0.0365353599190712,-0.05924016982316971,-0.04670985415577888,0.02803514897823334,-0.1176071092486382,-0.00510487100109458,-0.01104200849199405,0.07216376550986577,0.9782847193256821,0.1939831769246588,0.04960156977176666,-0.1369094848632812,-0.9893409013748169,192.168.1.24,100.109.58.95,5,0
2015-04-09 17:44:35.243,28,1428590674.828912,51.73566398681303,39.26762790422818,92.93591,1428590675.210905,-39.41156005859375,24.17041015625,-50.06971740722656,63.95920562744141,53.23588180541992,619800.2288176666,0.0459747314453125,-0.2359161376953125,-0.9609222412109375,619800.2204746667,-0.08681985048491019,-0.0714171920043279,-0.08306852177342458,619800.1988176667,2.744882075157379,0.04885175822939753,0.1408413857994074,0.02319373190402985,-0.1219514310359955,-0.09100892394781113,0.0216737799346447,-0.1019486114382744,-0.01736958138644695,-0.01002391108183144,0.0737631453886264,0.9780090105019589,0.1948252934451567,0.0483488030731678,-0.1403762251138687,-0.9889170527458191,192.168.1.24,100.109.58.95,5,0
2015-04-09 17:44:35.293,29,1428590674.828912,51.73566398681303,39.26762790422818,92.93591,1428590675.270795,-39.71955871582031,24.4783935546875,-49.77016448974609,63.54049301147461,52.81716918945312,619800.2482876667,0.0289154052734375,-0.2317657470703125,-0.9423370361328125,619800.2421466667,-0.1063599960350396,-0.06182448575786249,-0.0760212648968569,619800.2204746667,2.74296972420365,0.04630799792437805,0.1463911273511022,-0.005398164503276348,-0.1604868322610855,-0.07349479198455811,0.01166828628629446,-0.09395357221364975,0.01900510303676128,-0.008157331401363961,0.07623493981990372,0.9776517385641027,0.1957518070865862,0.04579631239175797,-0.1458688229322433,-0.9882434010505676,192.168.1.24,100.109.58.95,5,0
2015-04-09 17:44:35.295,30,1428590674.828912,51.73566398681303,39.26762790422818,92.93591,1428590675.270795,-39.71955871582031,24.4783935546875,-49.77016448974609,63.54049301147461,52.81716918945312,619800.2677526667,0.0308837890625,-0.2369384765625,-0.9254608154296875,619800.2638406667,-0.08662597235755241,-0.07149176051485012,-0.1170195646141907,619800.2421466667,2.741544731927367,0.04285953270523724,0.1509652630944746,-0.02491621300578117,-0.150894358754158,-0.06644146889448166,-0.01211617328226566,-0.08173947036266327,0.03721799701452255,-0.005960910938140989,0.07813593705540157,0.9773678099757886,0.196497854706876,0.04235909134149551,-0.1503924876451492,-0.9877184629440308,192.168.1.24,100.109.58.95,5,0
2015-04-09 17:44:35.301,31,1428590674.828912,51.73566398681303,39.26762790422818,92.93591,1428590675.270795,-39.71955871582031,24.4783935546875,-49.77016448974609,63.54049301147461,52.81716918945312,619800.2871976667,0.034149169921875,-0.2391204833984375,-0.9247283935546875,619800.2638406667,-0.08662597235755241,-0.07149176051485012,-0.1170195646141907,619800.2638406667,2.739496102121371,0.03982429969784533,0.1505228258398836,-0.00518245343118906,-0.1605613380670547,-0.1074398010969162,-0.008983342908322811,-0.08376380801200867,0.05153804644942284,-0.004442269980504067,0.07762614618365619,0.9771892632668226,0.1976248755145734,0.03936359286308289,-0.1499550640583038,-0.9879088997840881,192.168.1.24,100.109.58.95,5,0
2015-04-09 17:44:35.321,32,1428590674.828912,51.73566398681303,39.26762790422818,92.93591,1428590675.310057,-40.13020324707031,24.13618087768555,-49.7036018371582,63.93339157104492,53.21006774902344,619800.3066676666,0.0299224853515625,-0.2432098388671875,-0.9394989013671875,619800.3071756667,-0.05988836764537488,-0.06787758459950359,-0.1469039604704059,619800.2855006667,2.736862167792165,0.03678801467969853,0.153586084838154,0.02741355821490288,-0.1472788602113724,-0.1262505650520325,-0.002029760275036097,-0.08467265963554382,0.06359472870826721,-0.002547922214968271,0.07882522123206331,0.9768253189345109,0.198978362840302,0.03634677827358246,-0.1529829800128937,-0.9875602126121521,192.168.1.24,100.109.58.95,5,0
2015-04-09 17:44:35.342,33,1428590674.828912,51.73566398681303,39.26762790422818,92.93591,1428590675.330363,-40.81463623046875,24.27306365966797,-49.77016448974609,63.99387359619141,53.27054977416992,619800.3261386667,0.0376129150390625,-0.2509002685546875,-0.944915771484375,619800.3288426667,-0.04948765832417943,-0.1219820989894444,-0.1350030925071688,619800.3071756667,2.733900527706036,0.03401060494194681,0.1540849978176921,0.02156667970120907,-0.1569461822509766,-0.1373213678598404,-0.003678695997223258,-0.08973383903503418,0.04808202013373375,-0.001024418283175123,0.07879396926508231,0.9765141185304483,0.2005259017816613,0.03360117971897125,-0.1534759998321533,-0.9875808954238892,192.168.1.24,100.109.58.95,5,0
2015-04-09 17:44:35.379,34,1428590674.828912,51.73566398681303,39.26762790422818,92.93591,1428590675.370339,-40.71195983886719,23.34910202026367,-49.73688507080078,64.28142547607422,53.55810165405273,619800.3456136667,0.0457305908203125,-0.254974365234375,-0.9466400146484375,619800.3505106667,-0.0515638587100052,-0.1412681789715802,-0.1460847721190975,619800.3288426667,2.731041391641443,0.03035751901768709,0.1573160149273561,0.03197953850030899,-0.2110499292612076,-0.1254178434610367,0.007634875830262899,-0.09423233568668365,0.04228049889206886,0.001201476311540659,0.08000263318880564,0.9761084866234431,0.2020157357218364,0.02997803874313831,-0.1566679328680038,-0.9871962666511536,192.168.1.24,100.109.58.95,5,0
2015-04-09 17:44:35.381,35,1428590674.828912,51.73566398681303,39.26762790422818,92.93591,1428590675.370339,-40.71195983886719,23.34910202026367,-49.73688507080078,64.28142547607422,53.55810165405273,619800.3650926667,0.0521087646484375,-0.2656707763671875,-0.9674072265625,619800.3721776668,-0.1041988408104403,-0.2450260003055034,-0.1997607838896446,619800.3505106667,2.728228420489624,0.02601017458672819,0.157973826765883,0.0299029853194952,-0.2303356230258942,-0.1364995688199997,0.02004718966782093,-0.09765677899122238,0.04057401418685913,0.00350272344636063,0.07987938593630681,0.975793757560337,0.2035523454475238,0.02568340115249157,-0.1573175936937332,-0.9872140288352966,192.168.1.24,100.109.58.95,5,0
2015-04-09 17:44:35.401,36,1428590674.828912,51.73566398681303,39.26762790422818,92.93591,1428590675.370339,-40.71195983886719,23.34910202026367,-49.73688507080078,64.28142547607422,53.55810165405273,619800.3845486667,0.0518798828125,-0.281890869140625,-0.97003173828125,619800.3721776668,-0.1041988408104403,-0.2450260003055034,-0.1997607838896446,619800.3505106667,2.728228420489624,0.02601017458672819,0.157973826765883,0.0299029853194952,-0.2303356230258942,-0.1364995688199997,0.02004718966782093,-0.09765677899122238,0.04057401418685913,0.00350272344636063,0.07987938593630681,0.975793757560337,0.2035523454475238,0.02568340115249157,-0.1573175936937332,-0.9872140288352966,192.168.1.24,100.109.58.95,5,0
2015-04-09 17:44:35.423,37,1428590674.828912,51.73566398681303,39.26762790422818,92.93591,1428590675.410046,-41.05416870117188,23.69131088256836,-49.53717803955078,64.07108306884766,53.34775924682617,619800.4040186667,0.0366363525390625,-0.288604736328125,-0.981414794921875,619800.3938716667,-0.09115228094625109,-0.3738763917462621,-0.248980261892053,619800.3721776668,2.724502641361462,0.02103442178463257,0.1608289458592887,-0.02271782234311104,-0.3340897858142853,-0.190174326300621,0.03134732693433762,-0.1055342629551888,0.01946929097175598,0.006373988651167894,0.08075341164475638,0.9752926760515542,0.2055296932723313,0.02076143957674503,-0.1601365059614182,-0.9868765473365784,192.168.1.24,100.109.58.95,5,0
2015-04-09 17:44:35.461,38,1428590674.828912,51.73566398681303,39.26762790422818,92.93591,1428590675.448544,-41.53326416015625,23.69131088256836,-49.27091217041016,63.85170364379883,53.12837982177734,619800.4234896667,0.0171966552734375,-0.273406982421875,-1.012313842773438,619800.4155436667,-0.06560431029301195,-0.3834371400596466,-0.2486604162451345,619800.3938716667,2.719617483190589,0.01266989853033815,0.1603982442175277,-0.009671611711382866,-0.4629397988319397,-0.2393938452005386,0.03937295451760292,-0.1221795156598091,0.0170527882874012,0.01060290330712505,0.07965748920705647,0.9747683443560315,0.2082521013005676,0.01250693015754223,-0.1597113460302353,-0.9870845079421997,192.168.1.24,100.109.58.95,5,0
2015-04-09 17:44:35.463,39,1428590674.828912,51.73566398681303,39.26762790422818,92.93591,1428590675.448544,-41.53326416015625,23.69131088256836,-49.27091217041016,63.85170364379883,53.12837982177734,619800.4429586667,0.00860595703125,-0.2735748291015625,-1.015243530273438,619800.4372106667,-0.01875957303462716,-0.3628373227117747,-0.2405281875404685,619800.4155436667,2.714212776460768,0.003768719896545211,0.1633856742645165,0.01588981971144676,-0.4724974930286407,-0.2390725016593933,0.02333531342446804,-0.1168202608823776,-0.003849072381854057,0.01546973143867341,0.08014410517072065,0.9740267838462404,0.2112094556731828,0.003718520049005747,-0.1626597195863724,-0.9866752028465271,192.168.1.24,100.109.58.95,5,0
2015-04-09 17:44:35.477,40,1428590674.828912,51.73566398681303,39.26762790422818,92.93591,1428590675.448544,-41.53326416015625,23.69131088256836,-49.27091217041016,63.85170364379883,53.12837982177734,619800.4624166667,0.0206451416015625,-0.276458740234375,-1.01458740234375,619800.4588786667,-0.02417111636966817,-0.3434825331735148,-0.1895430337353376,619800.4372106667,2.709049006995881,-0.005151374966471638,0.1660379332856362,0.06274179369211197,-0.4518962204456329,-0.2309392839670181,0.01779107935726643,-0.1117777526378632,-0.03657763451337814,0.02030152515430879,0.08044078848007619,0.9732913391790208,0.2140586291281755,-0.005080507602542639,-0.1652760803699493,-0.9862342476844788,192.168.1.24,100.109.58.95,5,0
2015-04-09 17:44:35.496,41,1428590674.828912,51.73566398681303,39.26762790422818,92.93591,1428590675.488367,-42.97052001953125,23.62286758422852,-48.87151336669922,64.24940490722656,53.52607727050781,619800.4818996667,0.01788330078125,-0.2810516357421875,-1.021682739257812,619800.4588786667,-0.02417111636966817,-0.3434825331735148,-0.1895430337353376,619800.4588786667,2.704661710241227,-0.01394141598176718,0.167437044527553,0.05732998251914978,-0.432541161775589,-0.1799541711807251,0.02956936694681644,-0.1060340330004692,-0.02552477642893791,0.0249039740593761,0.08012574127794425,0.9726621114492947,0.2165365433632922,-0.01374600175768137,-0.1666557788848877,-0.9859192967414856,192.168.1.24,100.109.58.95,5,0
2015-04-09 17:44:35.533,42,1428590674.828912,51.73566398681303,39.26762790422818,92.93591,1428590675.508845,-43.17584228515625,23.41754150390625,-48.87151336669922,64.31428527832031,53.59096145629883,619800.5013386667,0.028961181640625,-0.2993621826171875,-1.012374877929688,619800.5022206667,-0.2597719232612721,-0.1621199313585736,-0.07784606287577919,619800.4805586667,2.701639272325284,-0.02066994647757049,0.17039993164113,-0.0004823107738047838,-0.3157679438591003,-0.09875857084989548,0.03935106843709946,-0.1082707867026329,-0.0350182019174099,0.02861690523347822,0.0807949277481281,0.9721187897394479,0.2182620237708721,-0.02036913298070431,-0.169576495885849,-0.9853065013885498,192.168.1.24,100.109.58.95,5,0
2015-04-09 17:44:35.536,43,1428590674.828912,51.73566398681303,39.26762790422818,92.93591,1428590675.508845,-43.17584228515625,23.41754150390625,-48.87151336669922,64.31428527832031,53.59096145629883,619800.5208086667,0.0082855224609375,-0.332763671875,-1.012405395507812,619800.5239116667,-0.5213007338936695,-0.3084752806444232,-0.09982646293274818,619800.5022206667,2.699936425226303,-0.02596525034330069,0.1682431771089606,-0.1782604604959488,-0.2511740922927856,-0.068257175385952,0.05455693975090981,-0.1319115906953812,-0.02682672813534737,0.03102473686857215,0.07914158508570181,0.9719452685810627,0.2193090743568477,-0.02559575624763966,-0.1674505919218063,-0.9855481386184692,192.168.1.24,100.109.58.95,5,0
2015-04-09 17:44:35.555,44,1428590674.828912,51.73566398681303,39.26762790422818,92.93591,1428590675.547685,-43.44961547851562,23.62286758422852,-48.80494689941406,63.99243545532227,53.26911163330078,619800.5402796667,0.0035400390625,-0.321197509765625,-1.024581909179688,619800.5455786667,-0.4744248376505308,-0.3422084769080209,-0.1708990418920198,619800.5239116667,2.69789183892267,-0.03173313778760541,0.1642321753480501,-0.4397721886634827,-0.3975236415863037,-0.09023735672235489,0.03958640992641449,-0.169268786907196,-0.02635789290070534,0.03347075609356744,0.07652422756380425,0.9717961938954628,0.2205355041996477,-0.03130088746547699,-0.163494884967804,-0.9860475063323975,192.168.1.24,100.109.58.95,5,0
2015-04-09 17:44:35.575,45,1428590674.828912,51.73566398681303,39.26762790422818,92.93591,1428590675.547685,-43.44961547851562,23.62286758422852,-48.80494689941406,63.99243545532227,53.26911163330078,619800.5597526667,0.0504302978515625,-0.2812042236328125,-1.028564453125,619800.5672466668,-0.2655568417811422,-0.2225422628025094,-0.1826473107247954,619800.5455786667,2.694423048281389,-0.04057729261698611,0.1548312841507317,-0.3928966522216797,-0.4312564432621002,-0.1613099724054337,0.04362092912197113,-0.1669841110706329,-0.0373576432466507,0.03686747042916603,0.07091302675457967,0.9716403582493874,0.22254695343157,-0.04008089005947113,-0.1542133986949921,-0.987224280834198,192.168.1.24,100.109.58.95,5,0
2015-04-09 17:44:35.619,46,1428590674.828912,51.73566398681303,39.26762790422818,92.93591,1428590675.587423,-43.99714660644531,24.17040252685547,-49.07121276855469,63.98614883422852,53.26282501220703,619800.5792196667,0.0478515625,-0.1874847412109375,-1.052581787109375,619800.5672466668,-0.2655568417811422,-0.2225422628025094,-0.1826473107247954,619800.5455786667,2.694423048281389,-0.04057729261698611,0.1548312841507317,-0.3928966522216797,-0.4312564432621002,-0.1613099724054337,0.04362092912197113,-0.1669841110706329,-0.0373576432466507,0.03686747042916603,0.07091302675457967,0.9716403582493874,0.22254695343157,-0.04008089005947113,-0.1542133986949921,-0.987224280834198,192.168.1.24,100.109.58.95,5,0
2015-04-09 17:44:35.621,47,1428590674.828912,51.73566398681303,39.26762790422818,92.93591,1428590675.607518,-44.27091979980469,24.51261138916016,-48.87151336669922,63.85943222045898,53.1361083984375,619800.5986896667,0.0478363037109375,-0.1347808837890625,-1.098007202148438,619800.5889136667,-0.1427536902276264,-0.01281726169433336,-0.1853624034561312,619800.5672466668,2.690410470250669,-0.04756925133341614,0.1504302246297727,-0.1840232759714127,-0.3115880191326141,-0.1730583161115646,0.09744460135698318,-0.1313407123088837,-0.04097618535161018,0.0399179423911262,0.06791483549264407,0.9712317359882809,0.2247288321610479,-0.04701429978013039,-0.1498635113239288,-0.9875882863998413,192.168.1.24,100.109.58.95,5,0
2015-04-09 17:44:35.632,48,1428590674.828912,51.73566398681303,39.26762790422818,92.93591,1428590675.607518,-44.27091979980469,24.51261138916016,-48.87151336669922,63.85943222045898,53.1361083984375,619800.6181596667,0.01019287109375,-0.127838134765625,-1.069427490234375,619800.6105816667,-0.09563171789976438,0.0763576221425339,-0.1888665908184574,619800.5889136667,2.686375428519097,-0.05086757356715352,0.1485372417665591,-0.06122047826647758,-0.1018626317381859,-0.1757734566926956,0.09813731908798218,-0.03949310258030891,-0.06487240642309189,0.04144463394690444,0.06654061107743278,0.9707832353301321,0.2267919738359858,-0.05028576031327248,-0.1479916423559189,-0.9877094030380249,192.168.1.24,100.109.58.95,5,0
2015-04-09 17:44:35.652,49,1428590674.828912,51.73566398681303,39.26762790422818,92.93591,1428590675.6473,-44.4420166015625,24.34150695800781,-48.83823394775391,64.14710235595703,53.42377853393555,619800.6376316667,-0.003692626953125,-0.1352996826171875,-1.030838012695312,619800.6322486667,-0.04374135564011546,0.1196286635341414,-0.2750819037359196,619800.6105816667,2.682236582837887,-0.04857244106970413,0.1475756949668396,-0.01409732457250357,-0.01267524156719446,-0.1792856305837631,0.07994697988033295,0.01659322530031204,-0.09870605915784836,0.04036043950311716,0.06625029715232526,0.9703961729744927,0.2287207916364716,-0.04802558943629265,-0.1470406055450439,-0.987963855266571,192.168.1.24,100.109.58.95,5,0
2015-04-09 17:44:35.705,50,1428590674.828912,51.73566398681303,39.26762790422818,92.93591,1428590675.686536,-43.92869567871094,24.10195922851562,-48.67181777954102,64.30122375488281,53.57789611816406,619800.6570986666,-0.053863525390625,-0.1358184814453125,-1.019180297851562,619800.6539466667,-0.01351820569324221,0.07856058899624745,-0.3779872472049084,619800.6322486667,2.67726274573327,-0.04740349397088266,0.1483618083516488,0.03779268264770508,0.03059618733823299,-0.2655009925365448,0.04349299520254135,0.01888136938214302,-0.05968859791755676,0.04004772364989867,0.06666631538141227,0.9698174793908976,0.2310970334985406,-0.04686518758535385,-0.1478181332349777,-0.9879035353660583,192.168.1.24,100.109.58.95,5,0
2015-04-09 17:44:35.708,51,1428590674.828912,51.73566398681303,39.26762790422818,92.93591,1428590675.686536,-43.92869567871094,24.10195922851562,-48.67181777954102,64.30122375488281,53.57789611816406,619800.6765706667,-0.10443115234375,-0.12823486328125,-1.012664794921875,619800.6539466667,-0.01351820569324221,0.07856058899624745,-0.3779872472049084,619800.6539466667,2.670141358628956,-0.04625912213426157,0.149776718718353,0.06801556795835495,-0.01047159265726805,-0.368406355381012,0.02384380809962749,0.01056073885411024,-0.03262384980916977,0.03989393716374327,0.06734357178827917,0.9689563381378135,0.2345142466865146,-0.04572491347789764,-0.14921735227108,-0.9877466559410095,192.168.1.24,100.109.58.95,5,0
2015-04-09 17:44:35.710,52,1428590674.828912,51.73566398681303,39.26762790422818,92.93591,1428590675.686536,-43.92869567871094,24.10195922851562,-48.67181777954102,64.30122375488281,53.57789611816406,619800.6960416667,-0.1271209716796875,-0.110626220703125,-0.9972381591796875,619800.6972816667,0.27227120352145,0.1670443825302391,-0.4312312942466446,619800.6756026667,2.661139439020939,-0.04491115064097572,0.1534861544129404,0.2229499369859695,0.01384505163878202,-0.4398539364337921,-0.04225588589906693,0.01805756613612175,-0.03184112161397934,0.03998112608721224,0.06912089139055204,0.9677715662892259,0.2388346863675461,-0.04436825960874557,-0.152884230017662,-0.98724764585495,192.168.1.24,100.109.58.95,5,0
2015-04-09 17:44:35.730,53,1428590674.828912,51.73566398681303,39.26762790422818,92.93591,1428590675.726494,-43.55226135253906,23.10955810546875,-48.43883514404297,64.86064910888672,54.13732528686523,619800.7155116667,-0.140167236328125,-0.0450286865234375,-0.9904632568359375,619800.7189496667,0.2568554955515263,0.3018525316456142,-0.4062580337566446,619800.6972816667,2.651922983043579,-0.04232455760500477,0.1607290991245142,0.3538042008876801,0.07801306992769241,-0.4216504991054535,-0.08535441011190414,0.04941172897815704,-0.01101130433380604,0.03991810602519044,0.07275381404150812,0.9664178311575492,0.2432077362555023,-0.04176655784249306,-0.160037949681282,-0.9862268567085266,192.168.1.24,100.109.58.95,5,0
2015-04-09 17:44:35.777,54,1428590674.828912,51.73566398681303,39.26762790422818,92.93591,1428590675.726494,-43.55226135253906,23.10955810546875,-48.43883514404297,64.86064910888672,54.13732528686523,619800.7349826667,-0.1338958740234375,-0.029632568359375,-0.9605712890625,619800.7189496667,0.2568554955515263,0.3018525316456142,-0.4062580337566446,619800.7189496667,2.643419419035135,-0.03745780947259267,0.1687704569971836,0.3383881151676178,0.2128215879201889,-0.3966772556304932,-0.1032502576708794,0.122941717505455,-0.005362713243812323,0.0388594761612057,0.0770692505699269,0.9651310004114643,0.2471283548560234,-0.03691697493195534,-0.1679704040288925,-0.9851005673408508,192.168.1.24,100.109.58.95,5,0
2015-04-09 17:44:35.779,55,1428590674.828912,51.73566398681303,39.26762790422818,92.93591,1428590675.765652,-43.34693908691406,22.15137481689453,-48.63853073120117,65.30172729492188,54.57839965820312,619800.7544206667,-0.1710662841796875,-0.052001953125,-0.9251251220703125,619800.7406326667,0.07370511369681498,0.4288677387791993,-0.4420903335914427,619800.7189496667,2.643419419035135,-0.03745780947259267,0.1687704569971836,0.3383881151676178,0.2128215879201889,-0.3966772556304932,-0.1032502576708794,0.122941717505455,-0.005362713243812323,0.0388594761612057,0.0770692505699269,0.9651310004114643,0.2471283548560234,-0.03691697493195534,-0.1679704040288925,-0.9851005673408508,192.168.1.24,100.109.58.95,5,0
2015-04-09 17:44:35.788,56,1428590674.828912,51.73566398681303,39.26762790422818,92.93591,1428590675.765652,-43.34693908691406,22.15137481689453,-48.63853073120117,65.30172729492188,54.57839965820312,619800.7738916667,-0.207305908203125,-0.0559539794921875,-0.9026336669921875,619800.7623096667,-0.1836044508205699,0.3861503685782193,-0.4074921426057873,619800.7406326667,2.634452464030578,-0.02934895875856075,0.1742400035173831,0.1552374809980392,0.3398370742797852,-0.4325096011161804,-0.1049954518675804,0.1437271237373352,0.02386315725743771,0.03597591861812825,0.08055128678994995,0.963927595428836,0.2511191236183727,-0.02890042401850224,-0.1733596920967102,-0.9844344258308411,192.168.1.24,100.109.58.95,5,0
2015-04-09 17:44:35.808,57,1428590674.828912,51.73566398681303,39.26762790422818,92.93591,1428590675.80371,-42.79940795898438,22.1513786315918,-49.10449981689453,65.57128143310547,54.84795379638672,619800.7933626667,-0.190155029296875,-0.0775146484375,-0.9235382080078125,619800.7839816667,-0.3110755911327766,0.3077263997458929,-0.3457121316381291,619800.7623096667,2.625294901513838,-0.02079415290366721,0.17401822304837,-0.1020724400877953,0.2971200942993164,-0.3979114592075348,-0.1505876630544662,0.1211393177509308,0.05955895036458969,0.03219779811366781,0.08137115404650158,0.9629239426164773,0.2551852617643185,-0.0204786229878664,-0.1731412708759308,-0.9846840500831604,192.168.1.24,100.109.58.95,5,0
2015-04-09 17:44:35.853,58,1428590675.839358,51.73571352386077,39.26752874631367,92.25446,1428590675.80371,-42.79940795898438,22.1513786315918,-49.10449981689453,65.57128143310547,54.84795379638672,619800.8128326667,-0.1200103759765625,-0.0952911376953125,-0.975982666015625,619800.8056496667,-0.3347449679530738,0.182531729533486,-0.3311936426394532,619800.7839816667,2.617285229122202,-0.01410577601749467,0.1701518015356814,-0.2295440286397934,0.2186966091394424,-0.3361315131187439,-0.1981802880764008,0.1094259545207024,0.0735500156879425,0.0288084699137175,0.08024686556210951,0.9621616071858859,0.2587963567869011,-0.01390161458402872,-0.169331967830658,-0.9854609966278076,192.168.1.24,100.109.58.95,5,0
2015-04-09 17:44:35.857,59,1428590675.839358,51.73571352386077,39.26752874631367,92.25446,1428590675.846484,-42.52565002441406,21.87761306762695,-49.37076568603516,66.07961273193359,55.35628890991211,619800.8323026667,-0.03839111328125,-0.068817138671875,-1.00445556640625,619800.8273226666,-0.19093560066934,0.009710684282755927,-0.2817310180295204,619800.8056496667,2.610097136322519,-0.009727877654193043,0.1646317668961478,-0.2532137334346771,0.09350234270095825,-0.3216130435466766,-0.1485916674137115,0.0742894783616066,0.04226400330662727,0.02627131620120442,0.07806260289811998,0.9615128007665042,0.2621243634918216,-0.009596193209290504,-0.1638890951871872,-0.9864320755004883,192.168.1.24,100.109.58.95,5,0
2015-04-09 17:44:35.867,60,1428590675.839358,51.73571352386077,39.26752874631367,92.25446,1428590675.846484,-42.52565002441406,21.87761306762695,-49.37076568603516,66.07961273193359,55.35628890991211,619800.851867625,0.0062408447265625,-0.0320281982421875,-1.043716430664062,619800.8273226666,-0.19093560066934,0.009710684282755927,-0.2817310180295204,619800.8273226666,2.603435243960682,-0.009075822217192945,0.1609612742968484,-0.1094047352671623,-0.07931831479072571,-0.272150456905365,-0.07110448181629181,0.08028055727481842,-0.005383355543017387,0.02573238261058326,0.07629765006968098,0.9607890015652304,0.2653318818957275,-0.008958382532000542,-0.1602671295404434,-0.9870330095291138,192.168.1.24,100.109.58.95,5,0
2015-04-09 17:44:35.885,61,1428590675.839358,51.73571352386077,39.26752874631367,92.25446,1428590675.846484,-42.52565002441406,21.87761306762695,-49.37076568603516,66.07961273193359,55.35628890991211,619800.8713386251,0.0412445068359375,-0.0319976806640625,-1.04986572265625,619800.8707726251,-0.06956656136283185,-0.01717259534104894,-0.06423331496383916,619800.849079625,2.599123807140868,-0.01010210766279849,0.1608441334398535,0.03588667884469032,-0.05337591096758842,-0.1412247121334076,-0.003074720036238432,0.1159620508551598,-0.03480850905179977,0.02637390435894653,0.07604852312348302,0.9602059874150193,0.2674425191175915,-0.009971544146537781,-0.1601514965295792,-0.9870420694351196,192.168.1.24,100.109.58.95,5,0
2015-04-09 17:44:35.938,62,1428590675.839358,51.73571352386077,39.26752874631367,92.25446,1428590675.922587,-42.69676208496094,21.36429977416992,-49.73688507080078,67.01689910888672,56.29357147216797,619800.890808625,0.0516357421875,-0.0685272216796875,-0.97235107421875,619800.892444625,-0.1595406598428319,-0.07036284652876554,-0.0647622187563289,619800.8707726251,2.597297384999116,-0.01077844111227947,0.1568919652779228,0.01188952662050724,-0.1061870455741882,-0.05462578311562538,0.03055857121944427,0.1298514008522034,-0.07038412243127823,0.02623929111809292,0.07403611194695781,0.9601062420737099,0.2683768947963095,-0.0106458505615592,-0.1562491059303284,-0.98766028881073,192.168.1.24,100.109.58.95,5,0
2015-04-09 17:44:35.940,63,1428590675.839358,51.73571352386077,39.26752874631367,92.25446,1428590675.922587,-42.69676208496094,21.36429977416992,-49.73688507080078,67.01689910888672,56.29357147216797,619800.9102786251,0.0109100341796875,-0.114501953125,-0.9121551513671875,619800.9141126251,-0.2281655274442117,-0.01037034928476855,-0.06659101147688631,619800.892444625,2.596285712472453,-0.01375315247341614,0.1558550715959962,-0.07808500528335571,-0.1593768149614334,-0.05515473708510399,0.06522176414728165,0.08669763803482056,0.01543466281145811,0.02756561225042558,0.07312502063816531,0.959970174508567,0.2689797993008605,-0.01358602475374937,-0.1552248597145081,-0.9877857565879822,192.168.1.24,100.109.58.95,5,0
2015-04-09 17:44:35.944,64,1428590675.839358,51.73571352386077,39.26752874631367,92.25446,1428590675.922587,-42.69676208496094,21.36429977416992,-49.73688507080078,67.01689910888672,56.29357147216797,619800.929750625,-0.0367889404296875,-0.134490966796875,-0.8620147705078125,619800.9357796251,-0.2493789371072379,0.04367610819340852,-0.09199517143126117,619800.9141126251,2.594998218906231,-0.01623561680627135,0.1531807268989552,-0.1467102319002151,-0.09938393533229828,-0.05698357149958611,0.02695483900606632,0.03808042779564857,0.07600535452365875,0.02844497165656547,0.0714886828306404,0.9598641008300505,0.2697056909898796,-0.01604480482637882,-0.1525823771953583,-0.9881604909896851,192.168.1.24,100.109.58.95,5,0
2015-04-09 17:44:35.964,65,1428590675.839358,51.73571352386077,39.26752874631367,92.25446,1428590675.94272,-42.97052001953125,21.15897750854492,-49.87001800537109,67.48130798339844,56.75798034667969,619800.949209625,-0.0563507080078125,-0.16070556640625,-0.86566162109375,619800.9357796251,-0.2493789371072379,0.04367610819340852,-0.09199517143126117,619800.9357796251,2.593465455556638,-0.01761882391615423,0.1496135270524495,-0.1679238975048065,-0.04533718526363373,-0.08238776028156281,-0.01936784200370312,0.01456502079963684,0.1266605108976364,0.02868326790923806,0.06956743490645927,0.959771269581391,0.2705120186400592,-0.01742109842598438,-0.1490559875965118,-0.9886752963066101,192.168.1.24,100.109.58.95,5,0
2015-04-09 17:44:36.016,66,1428590675.839358,51.73571352386077,39.26752874631367,92.25446,1428590675.981945,-42.97053527832031,21.70650863647461,-49.33748245239258,66.24079895019531,55.51747512817383,619800.968689625,-0.0611419677734375,-0.1684722900390625,-0.88909912109375,619800.9574546251,-0.177527383529118,0.1063823665881962,-0.1207767522800745,619800.9357796251,2.593465455556638,-0.01761882391615423,0.1496135270524495,-0.1679238975048065,-0.04533718526363373,-0.08238776028156281,-0.01936784200370312,0.01456502079963684,0.1266605108976364,0.02868326790923806,0.06956743490645927,0.959771269581391,0.2705120186400592,-0.01742109842598438,-0.1490559875965118,-0.9886752963066101,192.168.1.24,100.109.58.95,5,0
2015-04-09 17:44:36.020,67,1428590675.839358,51.73571352386077,39.26752874631367,92.25446,1428590676.00201,-43.34696960449219,21.26163482666016,-49.23763275146484,66.86469268798828,56.14136505126953,619800.988147625,-0.065460205078125,-0.1580810546875,-0.9171905517578125,619800.979114625,-0.08011933718227082,0.1523442659452198,-0.1323125008578618,619800.9574546251,2.591161004561222,-0.01723632193785009,0.1468995291351463,-0.09607270359992981,0.01736945472657681,-0.1111693829298019,-0.03930087015032768,-0.01433380320668221,0.1234210878610611,0.02821299739345541,0.06828375408833091,0.9595643086615268,0.2716204948979725,-0.01704983599483967,-0.1463717669248581,-0.9890826940536499,192.168.1.24,100.109.58.95,5,0
2015-04-09 17:44:36.023,68,1428590675.839358,51.73571352386077,39.26752874631367,92.25446,1428590676.00201,-43.34696960449219,21.26163482666016,-49.23763275146484,66.86469268798828,56.14136505126953,619801.007598625,-0.0475006103515625,-0.1609344482421875,-0.9511871337890625,619801.0007826251,-0.0599291140100531,0.1692979494446642,-0.1088463232287376,619800.979114625,2.588492742767704,-0.01590684506393637,0.1462179656418107,0.001334901549853384,0.06333184987306595,-0.1227051913738251,-0.04767908528447151,-0.01517590694129467,0.08989677578210831,0.02757384475762453,0.06810044867972959,0.9592444195820345,0.2728592228157948,-0.01573644205927849,-0.1456975042819977,-0.9892040491104126,192.168.1.24,100.109.58.95,5,0
2015-04-09 17:44:36.041,69,1428590675.839358,51.73571352386077,39.26752874631367,92.25446,1428590676.022669,-43.51806640625,21.43273544311523,-49.47061538696289,66.95345306396484,56.23012542724609,619801.0270696251,-0.031463623046875,-0.1715087890625,-0.960113525390625,619801.0224806251,-0.1184523452806534,0.2356056005815661,0.01199780702691598,619801.0007826251,2.586021110261532,-0.01396969062968979,0.1467776695577165,0.02152476832270622,0.08028590679168701,-0.0992390513420105,-0.03995294123888016,-0.01196716912090778,0.05192561447620392,0.02680559325457046,0.06860015659136597,0.9589125928805897,0.2739746665313177,-0.01381903141736984,-0.1462512165307999,-0.9891509413719177,192.168.1.24,100.109.58.95,5,0
2015-04-09 17:44:36.061,70,1428590675.839358,51.73571352386077,39.26752874631367,92.25446,1428590676.022669,-43.51806640625,21.43273544311523,-49.47061538696289,66.95345306396484,56.23012542724609,619801.046538625,-0.0173187255859375,-0.18060302734375,-0.9584503173828125,619801.044147625,-0.08599906423694777,0.2996687395517492,0.09904003146284779,619801.0224806251,2.585679357235051,-0.0126989101416096,0.1472599896208646,-0.03699687495827675,0.1465872675180435,0.02160852588713169,-0.0319029800593853,-0.02226275764405727,0.02967019006609917,0.02627393973254914,0.069001049997298,0.9588651585028521,0.2740914865505916,-0.01256113033741713,-0.1467283368110657,-0.9890970587730408,192.168.1.24,100.109.58.95,5,0
2015-04-09 17:44:36.094,71,1428590675.839358,51.73571352386077,39.26752874631367,92.25446,1428590676.061754,-43.55229187011719,21.19319152832031,-50.03643035888672,66.95941925048828,56.2360954284668,619801.0660086251,0.0125885009765625,-0.2178497314453125,-0.9293365478515625,619801.065815625,-0.05654317100012635,0.338347958591842,0.1397773413933538,619801.044147625,2.587358744022588,-0.008903748806795614,0.1467031240740405,-0.004543856717646122,0.210650697350502,0.1086507216095924,-0.01948180235922337,-0.02644520998001099,0.02121685072779655,0.0243201037923203,0.0692744363928261,0.9591629952798376,0.2731591724614226,-0.00880799163132906,-0.1461774706840515,-0.9892191886901855,192.168.1.24,100.109.58.95,5,0
2015-04-09 17:44:36.100,72,1428590675.839358,51.73571352386077,39.26752874631367,92.25446,1428590676.061754,-43.55229187011719,21.19319152832031,-50.03643035888672,66.95941925048828,56.2360954284668,619801.085487625,0.0025482177734375,-0.2403564453125,-0.9434661865234375,619801.087482625,-0.1029948256816155,0.2936625123452934,0.1242047732352245,619801.065815625,2.590476646457526,-0.004651920090717604,0.1485663701192117,0.02491794526576996,0.2493281066417694,0.1493900567293167,-0.00147233868483454,-0.04086810350418091,0.04743001982569695,0.02242465931853363,0.07078371829412623,0.9595702724950815,0.2714989724154259,-0.004600659478455782,-0.1480204463005066,-0.9889736175537109,192.168.1.24,100.109.58.95,5,0
2015-04-09 17:44:36.119,73,1428590675.839358,51.73571352386077,39.26752874631367,92.25446,1428590676.101166,-43.4154052734375,21.74072647094727,-50.16956329345703,66.79365539550781,56.07032775878906,619801.1049496251,-0.0274658203125,-0.24957275390625,-0.9455108642578125,619801.1091506251,-0.2100088940803785,0.2620076469963936,0.08597855789655416,619801.087482625,2.593537341778924,-0.0001161460837178134,0.1524278817490904,-0.02151731215417385,0.2046423554420471,0.1338204741477966,0.002663017250597477,-0.08851813524961472,0.04493915289640427,0.02066011422166968,0.07328362729087126,0.9598930145295036,0.2698297061276137,-0.0001147994116763584,-0.1518383026123047,-0.9884053468704224,192.168.1.24,100.109.58.95,5,0
2015-04-09 17:44:36.141,74,1428590675.839358,51.73571352386077,39.26752874631367,92.25446,1428590676.12128,-43.38116455078125,21.98027038574219,-50.0697135925293,66.65364074707031,55.93031311035156,619801.1244106251,-0.0677032470703125,-0.262847900390625,-0.9519195556640625,619801.1308176251,-0.2515645934138659,0.2125263802588304,0.07287154427562018,619801.1091506251,2.595976606179482,0.003391067088219918,0.1504945790403479,-0.128531739115715,0.1729878783226013,0.09559422731399536,-0.03081855177879333,-0.09964561462402344,0.04318049922585487,0.01862701462573737,0.07285157955238895,0.9603259800807247,0.2685511006584458,0.003352731699123979,-0.1499271392822266,-0.9886913895606995,192.168.1.24,100.109.58.95,5,0
2015-04-09 17:44:36.175,75,1428590675.839358,51.73571352386077,39.26752874631367,92.25446,1428590676.160312,-43.17584228515625,22.59624862670898,-50.40254592895508,66.09516906738281,55.37184143066406,619801.143890625,-0.0958404541015625,-0.2695770263671875,-0.942474365234375,619801.1308176251,-0.2515645934138659,0.2125263802588304,0.07287154427562018,619801.1091506251,2.595976606179482,0.003391067088219918,0.1504945790403479,-0.128531739115715,0.1729878783226013,0.09559422731399536,-0.03081855177879333,-0.09964561462402344,0.04318049922585487,0.01862701462573737,0.07285157955238895,0.9603259800807247,0.2685511006584458,0.003352731699123979,-0.1499271392822266,-0.9886913895606995,192.168.1.24,100.109.58.95,5,0
2015-04-09 17:44:36.177,76,1428590675.839358,51.73571352386077,39.26752874631367,92.25446,1428590676.160312,-43.17584228515625,22.59624862670898,-50.40254592895508,66.09516906738281,55.37184143066406,619801.163360625,-0.097381591796875,-0.2685699462890625,-0.9709320068359375,619801.1524956251,-0.226729018352223,0.1608858225094309,0.09349719428606586,619801.1308176251,2.598267947720366,0.003417009239560158,0.1515124090210219,-0.1700706630945206,0.1234928891062737,0.08249674737453461,-0.07108110189437866,-0.1119145154953003,0.03661860898137093,0.01866731077116114,0.07336517740965838,0.9605965144069468,0.2674386261583367,0.003377857152372599,-0.1509333848953247,-0.9885381460189819,192.168.1.24,100.109.58.95,5,0
2015-04-09 17:44:36.198,77,1428590675.839358,51.73571352386077,39.26752874631367,92.25446,1428590676.180812,-42.902099609375,22.66468811035156,-50.60224533081055,65.79524993896484,55.07192230224609,619801.182836625,-0.0738372802734375,-0.2719573974609375,-1.014434814453125,619801.1741746251,-0.2172769270113137,0.1538183256085786,0.1517964537089905,619801.1524956251,2.600263838283906,0.005040611982831096,0.1482385764320036,-0.1452354490756989,0.07185272127389908,0.103122353553772,-0.1008257642388344,-0.1218807697296143,0.0465458370745182,0.01737731818418291,0.07202726704223861,0.96099469324503,0.2664569405552323,0.004985309205949306,-0.1476962566375732,-0.9890202283859253,192.168.1.24,100.109.58.95,5,0
2015-04-09 17:44:36.216,78,1428590675.839358,51.73571352386077,39.26752874631367,92.25446,1428590676.180812,-42.902099609375,22.66468811035156,-50.60224533081055,65.79524993896484,55.07192230224609,619801.202300625,-0.0389251708984375,-0.2664642333984375,-1.038925170898438,619801.1958506251,-0.2171200668231081,0.1877347473551738,0.2502615086924901,619801.1741746251,2.603363850804367,0.005912306987615253,0.145277079043513,-0.1357838064432144,0.06478570401668549,0.1614215523004532,-0.09148231893777847,-0.1241237819194794,-0.005683907773345709,0.01645367997740792,0.07074607511719147,0.9615174721950105,0.2649687150107395,0.005849991459399462,-0.1447665989398956,-0.9894485473632812,192.168.1.24,100.109.58.95,5,0
2015-04-09 17:44:36.256,79,1428590675.839358,51.73571352386077,39.26752874631367,92.25446,1428590676.219759,-42.080810546875,23.28066253662109,-50.60224533081055,65.43318939208984,54.70986557006836,619801.221759625,-0.01153564453125,-0.250762939453125,-1.061050415039062,619801.2175186251,-0.2944931522892892,0.3971428322936303,0.3403048493608322,619801.1958506251,2.608004314217262,0.007071484636209453,0.1425289735869346,-0.1356272846460342,0.09870252013206482,0.2598865926265717,-0.06605123728513718,-0.1303835213184357,-0.03421267122030258,0.01537019313011608,0.06961441828219186,0.9622329589409072,0.2627267071658551,0.006999720819294453,-0.1420468986034393,-0.9898352026939392,192.168.1.24,100.109.58.95,5,0
2015-04-09 17:44:36.258,80,1428590675.839358,51.73571352386077,39.26752874631367,92.25446,1428590676.219759,-42.080810546875,23.28066253662109,-50.60224533081055,65.43318939208984,54.70986557006836,619801.241241625,0.0140533447265625,-0.2623291015625,-1.097976684570312,619801.239185625,-0.5874318174502992,0.4598530854300532,0.1992787517323402,619801.2175186251,2.615342433101135,0.01081065687753808,0.138588517390786,-0.213000625371933,0.3081108927726746,0.3499298989772797,-0.03361023962497711,-0.1198350414633751,-0.05700918287038803,0.01280197337137472,0.06825731035404393,0.9633478402142313,0.2591099917325038,0.01070679537951946,-0.1381452977657318,-0.9903541207313538,192.168.1.24,100.109.58.95,5,0
2015-04-09 17:44:36.275,81,1428590675.839358,51.73571352386077,39.26752874631367,92.25446,1428590676.259258,-41.63594055175781,24.13618469238281,-50.70209503173828,64.22444915771484,53.50112152099609,619801.260712625,0.0025634765625,-0.26318359375,-1.110733032226562,619801.260883625,-0.7282685643252865,0.1401973218972594,0.03723764994203295,619801.239185625,2.621542313213634,0.01782592038729163,0.1325404730352954,-0.5059309601783752,0.3708189427852631,0.2089060246944427,-0.01054278574883938,-0.1158483400940895,-0.08903676271438599,0.008430938954393112,0.0662795607110124,0.9643756777624363,0.2559599406949378,0.01766864024102688,-0.1321527510881424,-0.991071879863739,192.168.1.24,100.109.58.95,5,0
2015-04-09 17:44:36.296,82,1428590675.839358,51.73571352386077,39.26752874631367,92.25446,1428590676.279352,-41.53329467773438,24.786376953125,-50.60224533081055,63.95977020263672,53.23644638061523,619801.280193625,0.0354156494140625,-0.1656036376953125,-1.132186889648438,619801.282551625,-0.459207535181818,0.1878671064613507,0.05135773004163307,619801.260883625,2.623886342080748,0.02121600859268138,0.1189625374054886,-0.6467681527137756,0.05116365477442741,0.04686485603451729,-0.01850100420415401,-0.1445014476776123,-0.1180241927504539,0.004979448957879849,0.06017296808457885,0.9650817241385733,0.2548954388248222,0.02106448076665401,-0.1186821386218071,-0.9927088618278503,192.168.1.24,100.109.58.95,5,0
2015-04-09 17:44:36.328,83,1428590675.839358,51.73571352386077,39.26752874631367,92.25446,1428590676.30189,-41.60174560546875,25.06014633178711,-50.86851119995117,64.00537109375,53.28204727172852,619801.299651625,0.0880584716796875,-0.10284423828125,-1.206588745117188,619801.3042186251,-0.06640379125225374,0.3611299701369249,0.1131113757144994,619801.282551625,2.62508700079531,0.02225652747220132,0.108023446894988,-0.3777074813842773,0.09883382171392441,0.06098489835858345,0.01329067908227444,-0.05779015645384789,-0.1382619738578796,0.003043273925772466,0.05502981354073873,0.9655213978842326,0.2544226568786158,0.02212497033178806,-0.1078134775161743,-0.9939249157905579,192.168.1.24,100.109.58.95,5,0
2015-04-09 17:44:36.333,84,1428590675.839358,51.73571352386077,39.26752874631367,92.25446,1428590676.30189,-41.60174560546875,25.06014633178711,-50.86851119995117,64.00537109375,53.28204727172852,619801.319120625,0.1268157958984375,-0.0516357421875,-1.226303100585938,619801.325886625,0.3769134606533885,0.340565040199333,0.08694981274610605,619801.3042186251,2.62743851693373,0.02656569513288894,0.1053142827067505,0.0150959063321352,0.2720970809459686,0.1227385029196739,0.06164306774735451,0.002275477163493633,-0.2124800682067871,0.0005528084263706979,0.05427110950887631,0.9658893100226983,0.2532038346064436,0.02641540206968784,-0.1051197126507759,-0.9941086769104004,192.168.1.24,100.109.58.95,5,0
2015-04-09 17:44:36.353,85,1428590675.839358,51.73571352386077,39.26752874631367,92.25446,1428590676.338771,-41.56752014160156,25.2996940612793,-51.10149383544922,64.51148223876953,53.78815460205078,619801.338591625,0.129058837890625,-0.0093231201171875,-1.2320556640625,619801.325886625,0.3769134606533885,0.340565040199333,0.08694981274610605,619801.3042186251,2.62743851693373,0.02656569513288894,0.1053142827067505,0.0150959063321352,0.2720970809459686,0.1227385029196739,0.06164306774735451,0.002275477163493633,-0.2124800682067871,0.0005528084263706979,0.05427110950887631,0.9658893100226983,0.2532038346064436,0.02641540206968784,-0.1051197126507759,-0.9941086769104004,192.168.1.24,100.109.58.95,5,0
2015-04-09 17:44:36.372,86,1428590675.839358,51.73571352386077,39.26752874631367,92.25446,1428590676.338771,-41.56752014160156,25.2996940612793,-51.10149383544922,64.51148223876953,53.78815460205078,619801.3580636251,0.109100341796875,0.0442352294921875,-1.218017578125,619801.347572625,0.688492122916081,0.3619526205976503,0.1391200732363223,619801.325886625,2.629581607394778,0.03228676605184997,0.1118246262626905,0.4584128856658936,0.2515324354171753,0.09657690674066544,0.09473626315593719,0.05995597317814827,-0.2330668717622757,-0.001443373822397582,0.05813609636346181,0.9659999823851468,0.2519169406839,0.03207953274250031,-0.1115917190909386,-0.993236243724823,192.168.1.24,100.109.58.95,5,0
2015-04-09 17:44:36.413,87,1428590675.839358,51.73571352386077,39.26752874631367,92.25446,1428590676.378349,-40.95155334472656,24.27306747436523,-51.10149383544922,64.72649383544922,54.00317001342773,619801.377532625,0.0512542724609375,0.039154052734375,-1.146774291992188,619801.369221625,0.6606250715856009,0.4944709838077752,0.2317951496938807,619801.347572625,2.631663288642429,0.0373988416916572,0.1264349163719652,0.7699912190437317,0.2729203999042511,0.148747131228447,0.09196717292070389,0.116775207221508,-0.2407315969467163,-0.002126962174674072,0.06582885989392856,0.9658683135265068,0.250520334828227,0.03709166496992111,-0.1260983198881149,-0.9913240671157837,192.168.1.24,100.109.58.95,5,0
2015-04-09 17:44:36.415,88,1428590675.839358,51.73571352386077,39.26752874631367,92.25446,1428590676.378349,-40.95155334472656,24.27306747436523,-51.10149383544922,64.72649383544922,54.00317001342773,619801.397002625,0.006622314453125,-0.0038909912109375,-0.992767333984375,619801.3909196251,0.2987685911033024,0.4093164079524916,0.2475301706785049,619801.369221625,2.63562994709828,0.04463892836892416,0.1436496407210651,0.7421236634254456,0.4054392576217651,0.2414221465587616,0.03885858878493309,0.1868115067481995,-0.2116489261388779,-0.003594325889578382,0.07503310134673619,0.9658346327779496,0.2480334184145061,0.04416448250412941,-0.143156111240387,-0.9887142181396484,192.168.1.24,100.109.58.95,5,0
2015-04-09 17:44:36.431,89,1428590675.839358,51.73571352386077,39.26752874631367,92.25446,1428590676.418035,-40.40402221679688,23.38332366943359,-51.23462677001953,64.40005493164062,53.67673110961914,619801.416487625,-0.0051422119140625,-0.0392303466796875,-0.867523193359375,619801.412590625,-0.01699922355408479,0.1258434162539503,0.3268289879289223,619801.3909196251,2.640612284732391,0.05219883647362119,0.1554291332333411,0.3802668750286102,0.3202850520610809,0.2571571171283722,-0.03129776194691658,0.1737097203731537,-0.08259905129671097,-0.005967843859109929,0.08163703268252231,0.9660402362643488,0.245083744162683,0.05154617503285408,-0.1548040807247162,-0.9865995645523071,192.168.1.24,100.109.58.95,5,0
2015-04-09 17:44:36.450,90,1428590675.839358,51.73571352386077,39.26752874631367,92.25446,1428590676.418035,-40.40402221679688,23.38332366943359,-51.23462677001953,64.40005493164062,53.67673110961914,619801.435942625,0.034210205078125,-0.05755615234375,-0.839996337890625,619801.412590625,-0.01699922355408479,0.1258434162539503,0.3268289879289223,619801.412590625,2.646920093340864,0.05413377869062098,0.1592714938945164,0.06449879705905914,0.03681235760450363,0.336455911397934,-0.05526882410049438,0.1337729096412659,0.0625874251127243,-0.006687962415037444,0.08370720115867601,0.9666682710592729,0.2418694469340933,0.05342251062393188,-0.1585989594459534,-0.9858967661857605,192.168.1.24,100.109.58.95,5,0
2015-04-09 17:44:36.495,91,1428590675.839358,51.73571352386077,39.26752874631367,92.25446,1428590676.457747,-40.09602355957031,23.21221923828125,-51.00164413452148,64.07603454589844,53.35270690917969,619801.455413625,0.121307373046875,-0.0440826416015625,-0.88861083984375,619801.455921625,-0.07244384060455346,-0.06154139173398707,0.556272033748045,619801.4342356251,2.656176020927667,0.05195353294644852,0.1604791293231839,0.02024868875741959,-0.05565141513943672,0.4818572700023651,-0.04802804067730904,0.1099102199077606,0.149805098772049,-0.005874462730418253,0.08400026624486677,0.9677413857484262,0.2374574830746519,0.05126290395855904,-0.1597912013530731,-0.9858188629150391,192.168.1.24,100.109.58.95,5,0
2015-04-09 17:44:36.501,92,1428590675.839358,51.73571352386077,39.26752874631367,92.25446,1428590676.457747,-40.09602355957031,23.21221923828125,-51.00164413452148,64.07603454589844,53.35270690917969,619801.4748836251,0.1571197509765625,-0.016571044921875,-0.946868896484375,619801.477588625,-0.03590260728757622,-0.07350697451171309,0.5446153776567682,619801.455921625,2.668158054904181,0.04763105124397186,0.1612041443020682,0.009053382091224194,-0.1505715847015381,0.5658988356590271,0.07431164383888245,0.1164242103695869,0.09730444848537445,-0.00419764080695129,0.08381370299814793,0.9691318582759493,0.2318212334451096,0.04699572548270226,-0.16050685942173,-0.9859153032302856,192.168.1.24,100.109.58.95,5,0
2015-04-09 17:44:36.508,93,1428590675.839358,51.73571352386077,39.26752874631367,92.25446,1428590676.496796,-39.78804016113281,22.90423583984375,-51.96686172485352,63.64531707763672,52.92199325561523,619801.4943506251,0.165679931640625,0.019195556640625,-0.96002197265625,619801.499283625,-0.04394934852125065,-0.07369179789136458,0.4705219750730196,619801.477588625,2.680526546081127,0.04210321883452997,0.1624449886792119,0.04559426382184029,-0.1625367850065231,0.5542421936988831,0.1155831068754196,0.145160436630249,0.03909136354923248,-0.00189105987477143,0.08376332284015577,0.9705104504172654,0.2260300760301933,0.04153664782643318,-0.161731481552124,-0.9859602451324463,192.168.1.24,100.109.58.95,5,0
2015-04-09 17:44:36.528,94,1428590675.839358,51.73571352386077,39.26752874631367,92.25446,1428590676.496796,-39.78804016113281,22.90423583984375,-51.96686172485352,63.64531707763672,52.92199325561523,619801.5138246251,0.123046875,0.0242462158203125,-0.9585723876953125,619801.520929625,-0.1053493264013545,-0.0536272759225986,0.3642344170196302,619801.499283625,2.691055151910199,0.0407645344706804,0.1584222671525927,0.03752359002828598,-0.1627032160758972,0.4801382720470428,0.1254370212554932,0.176955983042717,0.02663508802652359,-0.002132533967633357,0.08165122112010319,0.9718361711609693,0.2210497383207513,0.04024291038513184,-0.157760426402092,-0.9866570830345154,192.168.1.24,100.109.58.95,5,0
2015-04-09 17:44:36.568,95,1428590675.839358,51.73571352386077,39.26752874631367,92.25446,1428590676.556719,-40.1302490234375,22.97267532348633,-51.96686172485352,63.3643913269043,52.64106750488281,619801.533295625,0.069000244140625,-0.0067901611328125,-0.939208984375,619801.520929625,-0.1053493264013545,-0.0536272759225986,0.3642344170196302,619801.499283625,2.691055151910199,0.0407645344706804,0.1584222671525927,0.03752359002828598,-0.1627032160758972,0.4801382720470428,0.1254370212554932,0.176955983042717,0.02663508802652359,-0.002132533967633357,0.08165122112010319,0.9718361711609693,0.2210497383207513,0.04024291038513184,-0.157760426402092,-0.9866570830345154,192.168.1.24,100.109.58.95,5,0
2015-04-09 17:44:36.572,96,1428590675.839358,51.73571352386077,39.26752874631367,92.25446,1428590676.556719,-40.1302490234375,22.97267532348633,-51.96686172485352,63.3643913269043,52.64106750488281,619801.5527656251,0.00762939453125,-0.0399627685546875,-0.896484375,619801.5426026251,-0.1155351186225806,-0.070680561646812,0.2839259953999638,619801.520929625,2.700132786575929,0.03630052562519882,0.1587826027561358,-0.02387665398418903,-0.1426384001970291,0.3738507032394409,0.08721086382865906,0.1823624521493912,0.02819761261343956,-0.0002921780245201703,0.08133212286586901,0.9728194151850292,0.2168118674362719,0.03583601117134094,-0.1581162363290787,-0.98676997423172,192.168.1.24,100.109.58.95,5,0
2015-04-09 17:44:36.586,97,1428590675.839358,51.73571352386077,39.26752874631367,92.25446,1428590676.577502,-40.47245788574219,22.76734924316406,-51.90029525756836,63.69828033447266,52.97495651245117,619801.572203625,-0.01739501953125,-0.0798492431640625,-0.880889892578125,619801.564289625,-0.07047709613952993,0.006383863449028942,0.248776530068662,619801.5426026251,2.70691634785603,0.03335022020603001,0.1523507674409189,-0.03408970683813095,-0.1596852242946625,0.2935363948345184,0.03604242950677872,0.1449719220399857,0.04865844175219536,0.0001727695993443184,0.07788618144376687,0.9737814270053352,0.2137368599709457,0.03295781463384628,-0.1517620831727982,-0.9878674149513245,192.168.1.24,100.109.58.95,5,0
2015-04-09 17:44:36.606,98,1428590675.839358,51.73571352386077,39.26752874631367,92.25446,1428590676.577502,-40.47245788574219,22.76734924316406,-51.90029525756836,63.69828033447266,52.97495651245117,619801.5916746251,-0.0244598388671875,-0.1304779052734375,-0.883148193359375,619801.5859566251,-0.06293635551297057,0.1025010756155148,0.1659005548420501,619801.564289625,2.712883289935903,0.02981292524540023,0.1524436101002819,0.01096786931157112,-0.08262032270431519,0.2583868801593781,-0.03475761786103249,0.09039144963026047,0.1026182770729065,0.001673689755331947,0.07755855458958069,0.9744100455106549,0.2109666622490712,0.02946281805634499,-0.1518538594245911,-0.9879637360572815,192.168.1.24,100.109.58.95,5,0
2015-04-09 17:44:36.647,99,1428590675.839358,51.73571352386077,39.26752874631367,92.25446,1428590676.61651,-40.40402221679688,23.24644088745117,-50.96836090087891,63.23756790161133,52.51424407958984,619801.6111526251,-0.0167083740234375,-0.1569976806640625,-0.87554931640625,619801.6076246251,-0.1247520528392358,0.06960118245700288,0.0555937540715131,619801.5859566251,2.717516882864129,0.02870473965509232,0.1530101566064467,0.01850825734436512,0.01349726878106594,0.1755108684301376,-0.05371032655239105,0.04801317304372787,0.1085608750581741,0.002093919677679869,0.07772259653484641,0.9748749478942677,0.2087430225335102,0.0283654797822237,-0.1524138003587723,-0.9879096150398254,192.168.1.24,100.109.58.95,5,0
2015-04-09 17:44:36.649,100,1428590675.839358,51.73571352386077,39.26752874631367,92.25446,1428590676.61651,-40.40402221679688,23.24644088745117,-50.96836090087891,63.23756790161133,52.51424407958984,619801.6306156251,-0.01678466796875,-0.190032958984375,-0.8795623779296875,619801.6076246251,-0.1247520528392358,0.06960118245700288,0.0555937540715131,619801.6076246251,2.719779612360643,0.02845784376037739,0.152726524861363,-0.04330770298838615,-0.01940232887864113,0.06520403921604156,-0.04719628393650055,0.00842620711773634,0.1032399237155914,0.00209661148966243,0.07756106014409557,0.9751204001738399,0.2076537775587219,0.02812279760837555,-0.1521334797143936,-0.9879597425460815,192.168.1.24,100.109.58.95,5,0
2015-04-09 17:44:36.665,101,1428590675.839358,51.73571352386077,39.26752874631367,92.25446,1428590676.655804,-40.67779541015625,23.38332366943359,-50.90179824829102,63.21797943115234,52.49465560913086,619801.650084625,-0.00164794921875,-0.209014892578125,-0.8914031982421875,619801.629292625,-0.0932732224383902,0.02492851938368671,-0.0461054437397788,619801.629292625,2.719818473023167,0.02718100423253585,0.151953475554762,-0.01182922534644604,-0.06407460570335388,-0.03649520501494408,-0.04285570606589317,-0.02079553157091141,0.1130358502268791,0.002636583667662246,0.07705177984709413,0.9751505609423416,0.2076955828678275,0.02686449699103832,-0.1513693928718567,-0.9881121516227722,192.168.1.24,100.109.58.95,5,0
2015-04-09 17:44:36.684,102,1428590675.839358,51.73571352386077,39.26752874631367,92.25446,1428590676.655804,-40.67779541015625,23.38332366943359,-50.90179824829102,63.21797943115234,52.49465560913086,619801.6695556251,0.0157318115234375,-0.209320068359375,-0.9248504638671875,619801.6726576251,0.008986304466254374,0.02495461836236949,-0.1549027648044589,619801.650987625,2.717576014520477,0.02611318208014529,0.1528661781003827,0.07463278621435165,-0.06645659357309341,-0.1273599117994308,-0.02745368517935276,-0.05674338340759277,0.0965985506772995,0.003339677025023604,0.07738199512539158,0.9748827692122376,0.2088168089040564,0.02580573596060276,-0.1522715091705322,-0.9880017638206482,192.168.1.24,100.109.58.95,5,0
2015-04-09 17:44:36.728,103,1428590675.839358,51.73571352386077,39.26752874631367,92.25446,1428590676.695578,-40.30136108398438,23.41754150390625,-50.66881561279297,62.94695281982422,52.22362899780273,619801.689025625,0.0188751220703125,-0.2095184326171875,-0.9445953369140625,619801.6943246251,0.06352810990718619,0.00711010747829355,-0.1250987964131641,619801.6726576251,2.714367763917116,0.02525534475094809,0.1546395284831606,0.09042950719594955,-0.06404764205217361,-0.1452926099300385,-0.009219511412084103,-0.05529613047838211,0.06290155649185181,0.004070041894439992,0.07815000699860007,0.9744807936839193,0.2103881981154528,0.02495132386684418,-0.1540239453315735,-0.9877520203590393,192.168.1.24,100.109.58.95,5,0
2015-04-09 17:44:36.730,104,1428590675.839358,51.73571352386077,39.26752874631367,92.25446,1428590676.695578,-40.30136108398438,23.41754150390625,-50.66881561279297,62.94695281982422,52.22362899780273,619801.7084806251,0.0255126953125,-0.2239990234375,-0.928558349609375,619801.715992625,0.1406434013798476,0.06893778902946414,-0.01314243366343203,619801.6943246251,2.711397591354301,0.02403000991403963,0.1570941448205694,0.1449709683656693,-0.08189176768064499,-0.1154886931180954,-0.004856700077652931,-0.05306963250041008,0.04280558228492737,0.005045204160117773,0.07920913210579053,0.9740743220214262,0.2118482345561095,0.02373182214796543,-0.1564487963914871,-0.9874008893966675,192.168.1.24,100.109.58.95,5,0
2015-04-09 17:44:36.742,105,1428590675.839358,51.73571352386077,39.26752874631367,92.25446,1428590676.734943,-40.78045654296875,22.87001037597656,-50.86851501464844,63.33768463134766,52.61436080932617,619801.727966625,0.0244903564453125,-0.2390899658203125,-0.9345245361328125,619801.715992625,0.1406434013798476,0.06893778902946414,-0.01314243366343203,619801.6943246251,2.711397591354301,0.02403000991403963,0.1570941448205694,0.1449709683656693,-0.08189176768064499,-0.1154886931180954,-0.004856700077652931,-0.05306963250041008,0.04280558228492737,0.005045204160117773,0.07920913210579053,0.9740743220214262,0.2118482345561095,0.02373182214796543,-0.1564487963914871,-0.9874008893966675,192.168.1.24,100.109.58.95,5,0
2015-04-09 17:44:36.762,106,1428590675.839358,51.73571352386077,39.26752874631367,92.25446,1428590676.75547,-40.60935974121094,23.17799758911133,-50.50239944458008,62.82761383056641,52.10429000854492,619801.7474066251,0.0179290771484375,-0.2615966796875,-0.951690673828125,619801.737659625,0.02841832567612654,0.1120783355276577,0.03517822747107467,619801.715992625,2.710226880930777,0.02317675522118477,0.1614823572756187,0.2220859825611115,-0.02006379887461662,-0.003532361704856157,0.002639516722410917,-0.06321756541728973,0.05816660821437836,0.00597710866747701,0.08125143364240635,0.9737828050721301,0.2123900356629187,0.0228731781244278,-0.1607814580202103,-0.9867249727249146,192.168.1.24,100.109.58.95,5,0
2015-04-09 17:44:36.808,107,1428590675.839358,51.73571352386077,39.26752874631367,92.25446,1428590676.794467,-40.95156860351562,22.76734924316406,-50.83522796630859,62.91007614135742,52.18675231933594,619801.766876625,0.0237274169921875,-0.276580810546875,-0.9706573486328125,619801.759357625,-0.09965974904850922,0.04658321483933901,-0.04241110667562088,619801.737659625,2.710968921939425,0.02336990682568031,0.1652419257181354,0.1098605543375015,0.02307713218033314,0.04478825628757477,0.001440878957509995,-0.0745989978313446,0.05158470943570137,0.006254914995876327,0.08310387111734711,0.9737169655829814,0.2119667275295528,0.02304947748780251,-0.1644909679889679,-0.9861092567443848,192.168.1.24,100.109.58.95,5,0
2015-04-09 17:44:36.811,108,1428590675.839358,51.73571352386077,39.26752874631367,92.25446,1428590676.794467,-40.95156860351562,22.76734924316406,-50.83522796630859,62.91007614135742,52.18675231933594,619801.7863466251,0.010955810546875,-0.27581787109375,-0.9899749755859375,619801.7810256251,-0.1790067695146571,-0.02011006202340634,-0.1750503773992353,619801.759357625,2.7110724753351,0.02298578761513905,0.1658465861441256,-0.01821795664727688,-0.0424175038933754,-0.03280112892389297,0.001699883956462145,-0.1042150110006332,0.02234958857297897,0.006502259319725027,0.08335775347667877,0.973703042946462,0.2119235468650691,0.02266840264201164,-0.1650873571634293,-0.9860184192657471,192.168.1.24,100.109.58.95,5,0
2015-04-09 17:44:36.821,109,1428590675.839358,51.73571352386077,39.26752874631367,92.25446,1428590676.794467,-40.95156860351562,22.76734924316406,-50.83522796630859,62.91007614135742,52.18675231933594,619801.8058226251,-0.0064697265625,-0.2564849853515625,-1.028121948242188,619801.8026926251,-0.24988573666268,-0.1286658343772163,-0.1999341556766087,619801.7810256251,2.708281438142954,0.02168237620154576,0.1696401722646619,-0.09753995388746262,-0.1091090962290764,-0.1654378473758698,0.001518719829618931,-0.1062119752168655,0.01220833417028189,0.007660921820662339,0.08505504218378093,0.9732510595434274,0.2132822664301464,0.02136946469545364,-0.168827697634697,-0.9854139089584351,192.168.1.24,100.109.58.95,5,0
2015-04-09 17:44:36.839,110,1428590675.839358,51.73571352386077,39.26752874631367,92.25446,1428590676.83189,-40.609375,23.04111480712891,-50.63553237915039,62.59847259521484,51.87514877319336,619801.8252876251,0.01068115234375,-0.2303466796875,-1.069061279296875,619801.8026926251,-0.24988573666268,-0.1286658343772163,-0.1999341556766087,619801.8026926251,2.704040707185506,0.01837490532299591,0.1666757600283477,-0.1684191823005676,-0.2176645845174789,-0.1903216540813446,-0.02092685922980309,-0.1077460199594498,-0.02337838895618916,0.009128332155656657,0.08324091088427035,0.9729008965208917,0.2155260305765159,0.01811924204230309,-0.1659051030874252,-0.9859752655029297,192.168.1.24,100.109.58.95,5,0
2015-04-09 17:44:36.861,111,1428590676.837569,51.73570564487179,39.26768892448327,94.08777,1428590676.83189,-40.609375,23.04111480712891,-50.63553237915039,62.59847259521484,51.87514877319336,619801.844757625,0.00732421875,-0.2238616943359375,-1.115554809570312,619801.846038625,-0.8326863169773313,-0.05448215063251403,-0.2531166836971641,619801.824349625,2.700559136325619,0.0146681321148745,0.162376495144407,-0.3963904976844788,-0.1027126312255859,-0.1844749301671982,-0.0197236891835928,-0.07651054114103317,-0.06507913023233414,0.01060581045128692,0.08073201546263045,0.9726742980584652,0.2174271564466975,0.01447466667741537,-0.1616638898849487,-0.9867396950721741,192.168.1.24,100.109.58.95,5,0
2015-04-09 17:44:36.892,112,1428590676.837569,51.73570564487179,39.26768892448327,94.08777,1428590676.871459,-41.02001953125,23.31488037109375,-51.10149383544922,62.65089416503906,51.92757034301758,619801.8642276251,-0.005340576171875,-0.269287109375,-1.124801635742188,619801.8676956251,-0.8261330764829733,-0.07859441114209145,-0.279865740002029,619801.846038625,2.695576565615112,0.01313733126906462,0.148996282661085,-0.7512091994285583,-0.1434838175773621,-0.2435015290975571,-0.005667184945195913,-0.07541608065366745,-0.1267195791006088,0.01007253967016346,0.07403327567543387,0.9726187194682617,0.2200691813437045,0.01299140322953463,-0.1484456062316895,-0.9888352155685425,192.168.1.24,100.109.58.95,5,0
2015-04-09 17:44:36.898,113,1428590676.837569,51.73570564487179,39.26768892448327,94.08777,1428590676.871459,-41.02001953125,23.31488037109375,-51.10149383544922,62.65089416503906,51.92757034301758,619801.883696625,0.03314208984375,-0.174957275390625,-1.16851806640625,619801.8893936251,-0.4378284768989889,-0.01890418268181846,-0.4130043534300333,619801.8676956251,2.690211684958867,0.01007680137317561,0.1318848991826449,-0.7446563243865967,-0.1675956845283508,-0.2702506482601166,-0.01532969903200865,-0.1377841979265213,-0.1335361748933792,0.009845749253761896,0.06534778854972575,0.9725834772256822,0.222966606425502,0.009989122860133648,-0.1315029114484787,-0.9912654757499695,192.168.1.24,100.109.58.95,5,0
2015-04-09 17:44:36.917,114,1428590676.837569,51.73570564487179,39.26768892448327,94.08777,1428590676.911242,-41.39643859863281,23.75975036621094,-51.13478088378906,63.39926147460938,52.67593765258789,619801.9031676251,0.0393829345703125,-0.090606689453125,-1.226531982421875,619801.8893936251,-0.4378284768989889,-0.01890418268181846,-0.4130043534300333,619801.8676956251,2.690211684958867,0.01007680137317561,0.1318848991826449,-0.7446563243865967,-0.1675956845283508,-0.2702506482601166,-0.01532969903200865,-0.1377841979265213,-0.1335361748933792,0.009845749253761896,0.06534778854972575,0.9725834772256822,0.222966606425502,0.009989122860133648,-0.1315029114484787,-0.9912654757499695,192.168.1.24,100.109.58.95,5,0
2015-04-09 17:44:36.937,115,1428590676.837569,51.73570564487179,39.26768892448327,94.08777,1428590676.911242,-41.39643859863281,23.75975036621094,-51.13478088378906,63.39926147460938,52.67593765258789,619801.922638625,-0.0098876953125,0.01898193359375,-1.28778076171875,619801.911049625,0.2608614224632235,-0.1051173650704086,-0.4939628526717881,619801.8893936251,2.682607189014747,0.008327903285819184,0.1204400594921427,-0.356392502784729,-0.1078995987772942,-0.4033648073673248,0.0248746108263731,-0.05480818450450897,-0.1757966279983521,0.009643252116433267,0.05955074192364064,0.9720653432014587,0.2268252308972811,0.0082674790173769,-0.120149090886116,-0.9927214384078979,192.168.1.24,100.109.58.95,5,0
2015-04-09 17:44:36.968,116,1428590676.837569,51.73570564487179,39.26768892448327,94.08777,1428590676.951888,-41.46488952636719,24.17040252685547,-50.66881561279297,63.63011169433594,52.90678787231445,619801.9421076251,-0.00408935546875,0.1181793212890625,-1.304336547851562,619801.932728625,0.8683393860707671,-0.04923865276225702,-0.4322092069989217,619801.911049625,2.672535198513716,0.006182216421280857,0.1214622911887253,0.3422970473766327,-0.1941124051809311,-0.4843233525753021,0.03324630483984947,0.03055716492235661,-0.2339184284210205,0.0111033057453832,0.05974898283386474,0.9708698259163026,0.2317726402686542,0.006136630196124315,-0.1211638525128365,-0.9926135540008545,192.168.1.24,100.109.58.95,5,0
2015-04-09 17:44:36.976,117,1428590676.837569,51.73570564487179,39.26768892448327,94.08777,1428590676.951888,-41.46488952636719,24.17040252685547,-50.66881561279297,63.63011169433594,52.90678787231445,619801.961547625,0.0140533447265625,0.129913330078125,-1.246536254882812,619801.954395625,0.8587863609245439,0.1543389736016891,-0.33754048814933,619801.932728625,2.662479268347064,0.003575211539257377,0.1378002962039394,0.9497745633125305,-0.1382331997156143,-0.422569751739502,-0.02140935510396957,0.2066242396831512,-0.314158022403717,0.01460268199816227,0.067302674640701,0.9691659866276837,0.2365890995558937,0.00354131287895143,-0.1373645961284637,-0.9905142188072205,192.168.1.24,100.109.58.95,5,0
2015-04-09 17:44:36.995,118,1428590676.837569,51.73570564487179,39.26768892448327,94.08777,1428590676.990667,-41.5333251953125,23.28066253662109,-50.60224533081055,63.37836074829102,52.65503692626953,619801.9810176251,-0.0339813232421875,0.0202789306640625,-1.051071166992188,619801.9760636251,0.3778282564878307,0.1892173291340209,-0.3251874154329975,619801.954395625,2.654696420127951,0.00440957648264683,0.159383455017003,0.9402211904525757,0.06534480303525925,-0.3279010653495789,0.00437435507774353,0.3034238517284393,-0.3006786704063416,0.01705637531335394,0.07778957671008077,0.9674724117055338,0.2401145443431657,0.00435367226600647,-0.1587095111608505,-0.9873157143592834,192.168.1.24,100.109.58.95,5,0
2015-04-09 17:44:37.015,119,1428590676.837569,51.73570564487179,39.26768892448327,94.08777,1428590676.990667,-41.5333251953125,23.28066253662109,-50.60224533081055,63.37836074829102,52.65503692626953,619802.000487625,-0.08056640625,-0.042022705078125,-0.836181640625,619801.9977306251,0.0325912327881717,0.06666318314242746,-0.3700963008950036,619801.9760636251,2.647681872712966,0.008021390310854339,0.1735053794112308,0.4592626988887787,0.1002235487103462,-0.3155480325222015,-0.02230516634881496,0.2493420839309692,-0.1766518652439117,0.01730580208335032,0.08499129969812409,0.9660917952062777,0.2431946369166023,0.007900869473814964,-0.1726361513137817,-0.9849539995193481,192.168.1.24,100.109.58.95,5,0
2015-04-09 17:44:37.048,120,1428590676.837569,51.73570564487179,39.26768892448327,94.08777,1428590677.030011,-41.29377746582031,23.04111862182617,-50.63552856445312,62.88102340698242,52.15769958496094,619802.0199576251,-0.071746826171875,-0.097442626953125,-0.764373779296875,619802.019426625,-0.08381394056253776,0.08679961046062559,-0.3789952536775034,619801.9977306251,2.640098861020587,0.009534165270773593,0.1782711816725505,0.1140254363417625,-0.02233030647039413,-0.3604569733142853,-0.06420775502920151,0.1534789353609085,0.05307672917842865,0.01748781805928703,0.08741095459958416,0.9649758999471298,0.2467286237078148,0.009382923133671284,-0.177328422665596,-0.9841070175170898,192.168.1.24,100.109.58.95,5,0
2015-04-09 17:44:37.053,121,1428590676.837569,51.73570564487179,39.26768892448327,94.08777,1428590677.030011,-41.29377746582031,23.04111862182617,-50.63552856445312,62.88102340698242,52.15769958496094,619802.039445625,-0.0933990478515625,-0.108673095703125,-0.831268310546875,619802.041096625,-0.1133028569968761,0.04095275966269349,-0.3955313535180234,619802.019426625,2.631868875566647,0.0108733737551984,0.1788862315424478,-0.002380089834332466,-0.002193497261032462,-0.3693559467792511,-0.08742084354162216,0.1113138124346733,0.2058165818452835,0.01727925875088481,0.08780246476881837,0.9639380646296969,0.2506303292810068,0.01069965120404959,-0.1779336929321289,-0.9839842915534973,192.168.1.24,100.109.58.95,5,0
2015-04-09 17:44:37.073,122,1428590676.837569,51.73570564487179,39.26768892448327,94.08777,1428590677.069666,-41.36222839355469,22.56202697753906,-50.63552856445312,63.40145874023438,52.67813491821289,619802.0588996251,-0.0804290771484375,-0.0641326904296875,-0.885711669921875,619802.0627636251,-0.1100671162724299,-0.01679735594345678,-0.3910407312879318,619802.041096625,2.623536047782057,0.01169798247033895,0.1782401003051769,-0.03186944499611855,-0.04803986102342606,-0.3858921229839325,-0.1049114391207695,0.06862473487854004,0.1528216004371643,0.01716534342472257,0.08752369822409262,0.9629200266940118,0.2546173117168264,0.011512391269207,-0.177297830581665,-0.9840899109840393,192.168.1.24,100.109.58.95,5,0
2015-04-09 17:44:37.093,123,1428590676.837569,51.73570564487179,39.26768892448327,94.08777,1428590677.089808,-41.4306640625,22.63046646118164,-50.43582916259766,63.47875595092773,52.75543212890625,619802.078369625,-0.072723388671875,-0.0270233154296875,-0.912261962890625,619802.0627636251,-0.1100671162724299,-0.01679735594345678,-0.3910407312879318,619802.0627636251,2.615081688921261,0.01133694792126709,0.1773791716294238,-0.02863405458629131,-0.1057895943522453,-0.381401538848877,-0.09158790111541748,0.1123177856206894,0.09853459149599075,0.01759701222842571,0.08698972744884829,0.9618682026969834,0.2587135348594913,0.0111588267609477,-0.1764504760503769,-0.9842462539672852,192.168.1.24,100.109.58.95,5,0
2015-04-09 17:44:37.138,124,1428590676.837569,51.73570564487179,39.26768892448327,94.08777,1428590677.089808,-41.4306640625,22.63046646118164,-50.43582916259766,63.47875595092773,52.75543212890625,619802.0978396251,-0.05126953125,-0.0247802734375,-0.9134674072265625,619802.0844306251,-0.09111925774873411,-0.02496553732283881,-0.2974391410871348,619802.0627636251,2.615081688921261,0.01133694792126709,0.1773791716294238,-0.02863405458629131,-0.1057895943522453,-0.381401538848877,-0.09158790111541748,0.1123177856206894,0.09853459149599075,0.01759701222842571,0.08698972744884829,0.9618682026969834,0.2587135348594913,0.0111588267609477,-0.1764504760503769,-0.9842462539672852,192.168.1.24,100.109.58.95,5,0
2015-04-09 17:44:37.141,125,1428590676.837569,51.73570564487179,39.26768892448327,94.08777,1428590677.129109,-41.25953674316406,21.84338760375977,-50.60224914550781,64.01541137695312,53.29208374023438,619802.117308625,-0.021881103515625,-0.0562896728515625,-0.9184112548828125,619802.106103625,-0.06833405041034317,-0.03320402615499893,-0.2401585407811656,619802.0844306251,2.607859681658141,0.01009255093934192,0.1770326967677317,-0.009686465375125408,-0.1139574870467186,-0.2877999544143677,-0.08265803009271622,0.1490861177444458,0.07205849885940552,0.01846332201151133,0.08659604239901104,0.9609309447733414,0.2622440667739733,0.009934641420841217,-0.1761094331741333,-0.9843204617500305,192.168.1.24,100.109.58.95,5,0
2015-04-09 17:44:37.151,126,1428590676.837569,51.73570564487179,39.26768892448327,94.08777,1428590677.129109,-41.25953674316406,21.84338760375977,-50.60224914550781,64.01541137695312,53.29208374023438,619802.136767625,0.0173797607421875,-0.1030426025390625,-0.8984527587890625,619802.127765625,-0.01766288329773253,0.02848676891614158,-0.1589198769927344,619802.106103625,2.602427964323828,0.008510221838681446,0.1770505502077356,0.01309839077293873,-0.1221955865621567,-0.2305194139480591,-0.0596466138958931,0.1513467282056808,0.07086440175771713,0.01946048987598944,0.08634457972211403,0.9601993393298632,0.2649209913104345,0.008377084508538246,-0.1761270016431808,-0.9843317866325378,192.168.1.24,100.109.58.95,5,0
2015-04-09 17:44:37.170,127,1428590676.837569,51.73570564487179,39.26768892448327,94.08777,1428590677.129109,-41.25953674316406,21.84338760375977,-50.60224914550781,64.01541137695312,53.29208374023438,619802.156250625,0.0163421630859375,-0.1389312744140625,-0.8962249755859375,619802.149463625,0.04294933153192589,-0.06042499460502585,-0.1634805403594951,619802.127765625,2.59895477178529,0.004199598235671117,0.1693363889879479,0.06372709572315216,-0.06051547825336456,-0.1492808163166046,0.0006517412839457393,0.08440656214952469,0.07759181410074234,0.02064838805823946,0.08203401476116869,0.9600125617270877,0.2668706537237957,0.004139518365263939,-0.1685282737016678,-0.9856881499290466,192.168.1.24,100.109.58.95,5,0
2015-04-09 17:44:37.221,128,1428590676.837569,51.73570564487179,39.26768892448327,94.08777,1428590677.188942,-41.39642333984375,21.02208709716797,-49.73688507080078,64.91275787353516,54.18943023681641,619802.175696625,0.0546875,-0.1725311279296875,-0.870513916015625,619802.1711316251,0.09558138415516187,-0.01338052026488512,-0.1769004754085134,619802.149463625,2.59573524697021,0.002411964533633037,0.1714224580837687,0.1243389546871185,-0.1494268625974655,-0.1538415253162384,0.0136451181024313,0.04762880876660347,0.08598722517490387,0.02191833465510431,0.08276147739767001,0.9594776370115256,0.2684637564731813,0.002376610413193703,-0.1705841273069382,-0.9853402376174927,192.168.1.24,100.109.58.95,5,0
2015-04-09 17:44:37.223,129,1428590676.837569,51.73570564487179,39.26768892448327,94.08777,1428590677.188942,-41.39642333984375,21.02208709716797,-49.73688507080078,64.91275787353516,54.18943023681641,619802.195173625,-0.0023651123046875,-0.1795196533203125,-0.88555908203125,619802.1927986251,0.02879170086095565,0.1454429502963884,-0.1161577656854411,619802.1711316251,2.5920075168394,1.919121557511907e-05,0.1749315943839223,0.1769706606864929,-0.1023819968104362,-0.1672615110874176,0.0452844463288784,0.009932500310242176,0.1067172065377235,0.02369415724047101,0.08407950829797176,0.9588024586547602,0.2703092090081887,1.889832856249996e-05,-0.1740407794713974,-0.9847384691238403,192.168.1.24,100.109.58.95,5,0
2015-04-09 17:44:37.229,130,1428590676.837569,51.73570564487179,39.26768892448327,94.08777,1428590677.188942,-41.39642333984375,21.02208709716797,-49.73688507080078,64.91275787353516,54.18943023681641,619802.214622625,-0.0244903564453125,-0.192657470703125,-0.8492889404296875,619802.1927986251,0.02879170086095565,0.1454429502963884,-0.1161577656854411,619802.1927986251,2.589102004649892,0.0004225232057212999,0.1779255788050643,0.1101807132363319,0.05644176155328751,-0.1065188199281693,0.02070231176912785,-0.002119382610544562,0.09567832201719284,0.0240297369524294,0.0855344168247925,0.9582867383887756,0.2716486007853758,0.000415852788137272,-0.1769882887601852,-0.9842128753662109,192.168.1.24,100.109.58.95,5,0
2015-04-09 17:44:37.249,131,1428590676.837569,51.73570564487179,39.26768892448327,94.08777,1428590677.228367,-41.49906921386719,20.50877380371094,-49.63703155517578,65.20191955566406,54.47859191894531,619802.2341056251,-0.0157012939453125,-0.2040863037109375,-0.835540771484375,619802.236133625,-0.1745180114973285,0.3342165967928021,0.04337383940968452,619802.214471625,2.588126365131088,0.003247766146996024,0.1794642996999036,0.04522639140486717,0.1563887149095535,-0.00493604876101017,-0.02193339169025421,-0.004618225153535604,0.1146715730428696,0.02292739580646271,0.08664410111840086,0.958121459630098,0.2719750041073982,0.003195599652826786,-0.1785025000572205,-0.9839342832565308,192.168.1.24,100.109.58.95,5,0
2015-04-09 17:44:37.296,132,1428590676.837569,51.73570564487179,39.26768892448327,94.08777,1428590677.268788,-40.50665283203125,20.33767318725586,-49.93658065795898,64.80398559570312,54.08066177368164,619802.2535706251,-0.0050506591796875,-0.2148895263671875,-0.877197265625,619802.2578316251,-0.1983096274116604,0.3148490240813098,0.02104855999155027,619802.236133625,2.58895815506258,0.007796423180559578,0.1784975140636805,-0.09312979131937027,0.2452162802219391,0.05301268398761749,-0.02337376587092876,-0.02653514221310616,0.1485408842563629,0.02058045177744201,0.08680791287270309,0.9583251241731335,0.2713923131665316,0.007672472391277552,-0.1775511652231216,-0.9840816855430603,192.168.1.24,100.109.58.95,5,0
2015-04-09 17:44:37.299,133,1428590676.837569,51.73570564487179,39.26768892448327,94.08777,1428590677.268788,-40.50665283203125,20.33767318725586,-49.93658065795898,64.80398559570312,54.08066177368164,619802.2730466251,0.0073394775390625,-0.2227020263671875,-0.8851165771484375,619802.2794996251,-0.1792517803349443,0.2559076765195671,0.01243190228459889,619802.2578316251,2.589877097938311,0.01290110563779944,0.1760118839513571,-0.1169217675924301,0.2258490920066833,0.030687365680933,-0.01775208860635757,-0.03978504985570908,0.1072706580162048,0.01775635324210726,0.08631772311346686,0.9586026916757617,0.2707671363146635,0.01270142942667007,-0.175104483962059,-0.9844679236412048,192.168.1.24,100.109.58.95,5,0
2015-04-09 17:44:37.307,134,1428590676.837569,51.73570564487179,39.26768892448327,94.08777,1428590677.268788,-40.50665283203125,20.33767318725586,-49.93658065795898,64.80398559570312,54.08066177368164,619802.292511625,0.0035400390625,-0.2210693359375,-0.9300689697265625,619802.2794996251,-0.1792517803349443,0.2559076765195671,0.01243190228459889,619802.2578316251,2.589877097938311,0.01290110563779944,0.1760118839513571,-0.1169217675924301,0.2258490920066833,0.030687365680933,-0.01775208860635757,-0.03978504985570908,0.1072706580162048,0.01775635324210726,0.08631772311346686,0.9586026916757617,0.2707671363146635,0.01270142942667007,-0.175104483962059,-0.9844679236412048,192.168.1.24,100.109.58.95,5,0
2015-04-09 17:44:37.326,135,1428590676.837569,51.73570564487179,39.26768892448327,94.08777,1428590677.307579,-40.23289489746094,20.47455596923828,-50.40254592895508,64.81984710693359,54.09651947021484,619802.311951625,0.0019378662109375,-0.231658935546875,-0.998260498046875,619802.301149625,-0.2512287688004069,0.2667182463325258,0.08781187799096471,619802.2794996251,2.590377246622332,0.01677665235026276,0.1738210225182953,-0.09786418080329895,0.1669080406427383,0.02207067608833313,-0.009183594025671482,-0.04975498095154762,0.09967594593763351,0.01557932481488328,0.08579641423850927,0.9587925167244892,0.2703944707557039,0.01652307249605656,-0.1729470491409302,-0.9847925305366516,192.168.1.24,100.109.58.95,5,0
2015-04-09 17:44:37.377,136,1428590676.837569,51.73570564487179,39.26768892448327,94.08777,1428590677.347088,-39.9591064453125,20.88520431518555,-50.93507766723633,64.55367279052734,53.83034896850586,619802.3314346251,0.008026123046875,-0.2492523193359375,-1.022491455078125,619802.322834625,-0.321206522235547,0.21499885901486,0.1846065983387667,619802.301149625,2.591760455101283,0.0203327719523754,0.1709707897177687,-0.1698415279388428,0.1777189821004868,0.0974506139755249,-0.01649490185081959,-0.05093027278780937,0.05514740198850632,0.01342822269618787,0.08492053227236643,0.9591195311805625,0.2696255012824051,0.02003494091331959,-0.1701390594244003,-0.9852163791656494,192.168.1.24,100.109.58.95,5,0
2015-04-09 17:44:37.379,137,1428590676.837569,51.73570564487179,39.26768892448327,94.08777,1428590677.367372,-40.02754211425781,21.56961822509766,-50.86851119995117,64.30766296386719,53.58433532714844,619802.350891625,0.0446014404296875,-0.2613983154296875,-1.03271484375,619802.344501625,-0.2958273959954189,0.2019128843665376,0.2237028684055659,619802.322834625,2.59541854877376,0.02286673011058658,0.1662291629412609,-0.2398197054862976,0.1260000765323639,0.1942452788352966,-0.01832287944853306,-0.07342692464590073,-0.03010961599647999,0.01141775281944291,0.08301018343431486,0.9598120587408705,0.2678427827334118,0.02254956401884556,-0.1654646694660187,-0.9859578609466553,192.168.1.24,100.109.58.95,5,0
2015-04-09 17:44:37.385,138,1428590676.837569,51.73570564487179,39.26768892448327,94.08777,1428590677.367372,-40.02754211425781,21.56961822509766,-50.86851119995117,64.30766296386719,53.58433532714844,619802.370351625,0.0366058349609375,-0.232330322265625,-1.076980590820312,619802.3661696251,-0.4585164448789424,0.29431844892178,0.2958593539284998,619802.344501625,2.600473742269708,0.02366358584496175,0.1653593038074948,-0.2144236117601395,0.1129097193479538,0.2333439141511917,0.001945194322615862,-0.09560138732194901,-0.03735437616705894,0.01070896785935297,0.08272699505807629,0.9605237098512428,0.2653973720850756,0.02333861961960793,-0.1646067500114441,-0.9860831499099731,192.168.1.24,100.109.58.95,5,0
2015-04-09 17:44:37.404,139,1428590676.837569,51.73570564487179,39.26768892448327,94.08777,1428590677.367372,-40.02754211425781,21.56961822509766,-50.86851119995117,64.30766296386719,53.58433532714844,619802.389830625,0.00323486328125,-0.2247314453125,-1.117477416992188,619802.387867625,-0.73470489204779,0.3619326468894747,0.1757366740121488,619802.3661696251,2.606685113555852,0.02618608724069824,0.1589862408352193,-0.3771129250526428,0.205315575003624,0.3055003583431244,0.02295998483896255,-0.08939386904239655,-0.06302957236766815,0.008396944162291618,0.08002877154446608,0.9615936491203032,0.2624167316032426,0.02585288137197495,-0.1583173125982285,-0.9870497584342957,192.168.1.24,100.109.58.95,5,0
2015-04-09 17:44:37.456,140,1428590676.837569,51.73570564487179,39.26768892448327,94.08777,1428590677.42715,-39.41157531738281,23.34910202026367,-51.46761322021484,63.31909942626953,52.59577560424805,619802.409302625,-0.045684814453125,-0.287139892578125,-1.120101928710938,619802.409534625,-0.9339644690202816,0.1784243361842567,0.1507998988290828,619802.387867625,2.612451326525041,0.03133760439194374,0.1490434380299455,-0.6532947421073914,0.2729307413101196,0.1853778660297394,-0.008875125087797642,-0.0744234025478363,-0.114873968064785,0.004385615370229909,0.07593911928185913,0.9627128636930598,0.2596111681350362,0.03098510950803757,-0.1484922468662262,-0.9884280562400818,192.168.1.24,100.109.58.95,5,0
2015-04-09 17:44:37.458,141,1428590676.837569,51.73570564487179,39.26768892448327,94.08777,1428590677.42715,-39.41157531738281,23.34910202026367,-51.46761322021484,63.31909942626953,52.59577560424805,619802.428772625,-0.0313720703125,-0.1889495849609375,-1.166152954101562,619802.431202625,-0.6027868053473689,0.275632379133239,0.1795519185897963,619802.409534625,2.617021154443194,0.03419674663932472,0.1314682932808824,-0.8525547981262207,0.08942291140556335,0.160441055893898,-0.07957985252141953,-0.156049981713295,-0.1293110549449921,0.000552228170553525,0.06785467040747313,0.9638643169508394,0.257606322237717,0.03389503806829453,-0.13108991086483,-0.9907909035682678,192.168.1.24,100.109.58.95,5,0
2015-04-09 17:44:37.462,142,1428590676.837569,51.73570564487179,39.26768892448327,94.08777,1428590677.42715,-39.41157531738281,23.34910202026367,-51.46761322021484,63.31909942626953,52.59577560424805,619802.448211625,0.13092041015625,-0.1259002685546875,-1.206939697265625,619802.4528696251,0.06994446392151409,0.193154280173485,0.1855349762947683,619802.431202625,2.621744713069592,0.03682902715461084,0.116973899496878,-0.5213774442672729,0.1866313517093658,0.1891930252313614,-0.06794115155935287,-0.07224225997924805,-0.173660084605217,-0.002744083763919546,0.06120484963204238,0.9648701407081541,0.2554839485283809,0.03656908124685287,-0.1167073249816895,-0.9924928545951843,192.168.1.24,100.109.58.95,5,0
2015-04-09 17:44:37.482,143,1428590676.837569,51.73570564487179,39.26768892448327,94.08777,1428590677.465979,-39.78800964355469,24.61527633666992,-51.70059585571289,63.49249267578125,52.76916885375977,619802.467681625,0.186370849609375,-0.1045379638671875,-1.286178588867188,619802.4745376251,0.7217819028581804,0.1286980586264062,0.2022423173933804,619802.4528696251,2.626256471379068,0.03940967145677988,0.1145759474515964,0.1513534635305405,0.1041536256670952,0.1951760351657867,0.09177926927804947,-0.01157484203577042,-0.2142677158117294,-0.004434159779531333,0.06036842077628411,0.9655005573476699,0.2532679722376593,0.03914114087820053,-0.1143254265189171,-0.9926719665527344,192.168.1.24,100.109.58.95,5,0
2015-04-09 17:44:37.502,144,1428590676.837569,51.73570564487179,39.26768892448327,94.08777,1428590677.465979,-39.78800964355469,24.61527633666992,-51.70059585571289,63.49249267578125,52.76916885375977,619802.487151625,0.175750732421875,-0.0635223388671875,-1.342117309570312,619802.4745376251,0.7217819028581804,0.1286980586264062,0.2022423173933804,619802.4528696251,2.626256471379068,0.03940967145677988,0.1145759474515964,0.1513534635305405,0.1041536256670952,0.1951760351657867,0.09177926927804947,-0.01157484203577042,-0.2142677158117294,-0.004434159779531333,0.06036842077628411,0.9655005573476699,0.2532679722376593,0.03914114087820053,-0.1143254265189171,-0.9926719665527344,192.168.1.24,100.109.58.95,5,0
2015-04-09 17:44:37.543,145,1428590676.837569,51.73570564487179,39.26768892448327,94.08777,1428590677.505673,-39.9591064453125,25.06015014648438,-51.66731262207031,63.39291381835938,52.66958999633789,619802.506621625,0.13751220703125,0.0293426513671875,-1.25372314453125,619802.496203625,1.156937364971057,0.1891100037420907,0.3402345419080541,619802.4745376251,2.630089779148935,0.04055458277231899,0.1269898862599836,0.8031906485557556,0.03969769179821014,0.2118833512067795,0.1461538523435593,0.02211088128387928,-0.2950465679168701,-0.003528485381259447,0.0664946938763014,0.965650866844774,0.2511660981087178,0.04021699726581573,-0.1266488432884216,-0.9911320209503174,192.168.1.24,100.109.58.95,5,0
2015-04-09 17:44:37.545,146,1428590676.837569,51.73570564487179,39.26768892448327,94.08777,1428590677.505673,-39.9591064453125,25.06015014648438,-51.66731262207031,63.39291381835938,52.66958999633789,619802.526091625,0.1019287109375,0.0447235107421875,-1.1048583984375,619802.517902625,1.021129731498575,0.4320116004460378,0.4065887983640324,619802.496203625,2.635458857650959,0.04091107982830312,0.1512407678148701,1.238345742225647,0.1001100242137909,0.3498755395412445,0.13531793653965,0.08714251220226288,-0.3543595969676971,-0.0008346312257142887,0.07823329838898632,0.9655672019067502,0.2481105258062943,0.04043279588222504,-0.1506648510694504,-0.987757682800293,192.168.1.24,100.109.58.95,5,0
2015-04-09 17:44:37.560,147,1428590676.837569,51.73570564487179,39.26768892448327,94.08777,1428590677.545795,-39.27470397949219,24.30728912353516,-51.80044555664062,62.3680305480957,51.64470672607422,619802.5455636251,0.016815185546875,-0.018646240234375,-0.899383544921875,619802.539577625,0.3557746195008845,0.2773040453494818,0.3493204485990775,619802.517902625,2.643327423061161,0.04530981030731593,0.1777330498105533,1.102537631988525,0.3430121243000031,0.4162297248840332,0.08144155144691467,0.2341260612010956,-0.2060178965330124,9.828223839600746e-06,0.0915508891401855,0.9655504410108677,0.2435791051481549,0.04458078742027283,-0.1767987906932831,-0.9832368493080139,192.168.1.24,100.109.58.95,5,0
2015-04-09 17:44:37.582,148,1428590676.837569,51.73570564487179,39.26768892448327,94.08777,1428590677.545795,-39.27470397949219,24.30728912353516,-51.80044555664062,62.3680305480957,51.64470672607422,619802.565006625,-0.010650634765625,-0.0549163818359375,-0.74432373046875,619802.5612376251,-0.1311015615102027,0.08812000572908688,0.2739007917924695,619802.539577625,2.650985306917522,0.04999416468462089,0.1934087760422911,0.4371821880340576,0.1883049458265305,0.3589613437652588,0.00178545038215816,0.2057397663593292,-0.02782122790813446,-0.0006921138720410779,0.09967557448991875,0.9658156976066785,0.2392996846738987,0.04904157668352127,-0.1922052204608917,-0.9801285862922668,192.168.1.24,100.109.58.95,5,0
2015-04-09 17:44:37.619,149,1428590676.837569,51.73570564487179,39.26768892448327,94.08777,1428590677.586847,-38.17962646484375,23.00689697265625,-51.86701202392578,61.44964218139648,50.726318359375,619802.5844726251,0.0324249267578125,-0.099029541015625,-0.724029541015625,619802.5612376251,-0.1311015615102027,0.08812000572908688,0.2739007917924695,619802.5612376251,2.657400186151057,0.04991900895189086,0.1959821968113552,-0.0496942363679409,-0.0008788083214312792,0.2835416495800018,-0.05298664793372154,0.1615726798772812,0.1761682331562042,-0.0006655435242394552,0.1009061027276233,0.9664645913174644,0.2361434081521563,0.04894306883215904,-0.1947300285100937,-0.9796350598335266,192.168.1.24,100.109.58.95,5,0
2015-04-09 17:44:37.622,150,1428590676.837569,51.73570564487179,39.26768892448327,94.08777,1428590677.586847,-38.17962646484375,23.00689697265625,-51.86701202392578,61.44964218139648,50.726318359375,619802.603942625,0.0860443115234375,-0.0946502685546875,-0.7912139892578125,619802.604572625,-0.3664978376300886,-0.1046507792474267,0.456921477702094,619802.5829136251,2.665033616880312,0.04741033722221576,0.1916942397136233,-0.2862445414066315,-0.08071359992027283,0.3800356686115265,-0.04356427490711212,0.1103374361991882,0.2609142363071442,-0.0003455820199765533,0.09853929372347953,0.9675490090904386,0.2326774659774021,0.04652447998523712,-0.1905223727226257,-0.9805797934532166,192.168.1.24,100.109.58.95,5,0
2015-04-09 17:44:37.637,151,1428590676.837569,51.73570564487179,39.26768892448327,94.08777,1428590677.624649,-38.5218505859375,23.07533645629883,-52.13327789306641,61.38470840454102,50.66138458251953,619802.623412625,0.193115234375,-0.06829833984375,-0.86065673828125,619802.626240625,-0.2000678463633307,-0.07528356927490494,0.4790560747861786,619802.604572625,2.675061793566261,0.04244096446050883,0.1854948107097843,-0.2850913107395172,-0.1936487257480621,0.4665622711181641,0.04434393718838692,0.08978261053562164,0.190746083855629,0.0008480662946511472,0.09496969215239452,0.9689713599114238,0.2281984706948207,0.04170037433505058,-0.1844328790903091,-0.9819600582122803,192.168.1.24,100.109.58.95,5,0
2015-04-09 17:44:37.657,152,1428590676.837569,51.73570564487179,39.26768892448327,94.08777,1428590677.624649,-38.5218505859375,23.07533645629883,-52.13327789306641,61.38470840454102,50.66138458251953,619802.642883625,0.2186279296875,-0.0385894775390625,-0.933807373046875,619802.6479386251,-0.1051043155810672,-0.1123608969193151,0.4717456975939111,619802.626240625,2.685834042617606,0.03640338931067112,0.181922328155833,-0.1186616718769073,-0.1642811298370361,0.4886967837810516,0.1573204845190048,0.1126221716403961,0.1221893876791,0.002860647728422447,0.09256756653257711,0.9703332351398396,0.223330416880175,0.03579474240541458,-0.1809205114841461,-0.9828461408615112,192.168.1.24,100.109.58.95,5,0
2015-04-09 17:44:37.698,153,1428590676.837569,51.73570564487179,39.26768892448327,94.08777,1428590677.667361,-38.86405944824219,24.03352355957031,-52.19984436035156,60.85532760620117,50.13200378417969,619802.6623536251,0.1662750244140625,-0.0289154052734375,-0.9575958251953125,619802.6696056251,-0.118406006277686,-0.08128393752696247,0.3905182190820582,619802.6479386251,2.696637992940857,0.03038870307775193,0.1812736427216423,-0.0236984845250845,-0.2013580650091171,0.4813863933086395,0.1887417435646057,0.1416930109262466,0.04935336485505104,0.005210558258463106,0.09161048270285778,0.9715416031005286,0.2183741811351531,0.02988618053495884,-0.1802824884653091,-0.9831607341766357,192.168.1.24,100.109.58.95,5,0
2015-04-09 17:44:37.701,154,1428590676.837569,51.73570564487179,39.26768892448327,94.08777,1428590677.667361,-38.86405944824219,24.03352355957031,-52.19984436035156,60.85532760620117,50.13200378417969,619802.681824625,0.11688232421875,-0.0469512939453125,-0.9404449462890625,619802.6696056251,-0.118406006277686,-0.08128393752696247,0.3905182190820582,619802.6479386251,2.696637992940857,0.03038870307775193,0.1812736427216423,-0.0236984845250845,-0.2013580650091171,0.4813863933086395,0.1887417435646057,0.1416930109262466,0.04935336485505104,0.005210558258463106,0.09161048270285778,0.9715416031005286,0.2183741811351531,0.02988618053495884,-0.1802824884653091,-0.9831607341766357,192.168.1.24,100.109.58.95,5,0
2015-04-09 17:44:37.715,155,1428590676.837569,51.73570564487179,39.26768892448327,94.08777,1428590677.703745,-39.17205810546875,24.82060241699219,-52.49939346313477,60.35739898681641,49.63407516479492,619802.7012936251,0.0411529541015625,-0.0764312744140625,-0.877838134765625,619802.691273625,-0.1916940689477946,-0.004617921330197399,0.3147667324036264,619802.6696056251,2.70543751166091,0.02891185627637787,0.1740391204312583,-0.03703285753726959,-0.170262485742569,0.4001519381999969,0.1378038972616196,0.144246444106102,0.02688595093786716,0.004741588121879218,0.08795811137612648,0.9727911662071153,0.2142854053234537,0.02847112901508808,-0.1731618493795395,-0.9844817519187927,192.168.1.24,100.109.58.95,5,0
2015-04-09 17:44:37.735,156,1428590676.837569,51.73570564487179,39.26768892448327,94.08777,1428590677.703745,-39.17205810546875,24.82060241699219,-52.49939346313477,60.35739898681641,49.63407516479492,619802.720732625,-0.026153564453125,-0.1147613525390625,-0.8350677490234375,619802.712940625,-0.2227920673127588,0.07102304416299618,0.2699635744368963,619802.691273625,2.713253425975021,0.02498370577511378,0.1723834109578969,-0.1103212684392929,-0.09359609335660934,0.324400395154953,0.09227146953344345,0.1245796233415604,0.04442634060978889,0.006133921829223466,0.08675674133225314,0.9736784146175912,0.210679822821703,0.02461085468530655,-0.1715309172868729,-0.9848712682723999,192.168.1.24,100.109.58.95,5,0
2015-04-09 17:44:37.776,157,1428590676.837569,51.73570564487179,39.26768892448327,94.08777,1428590677.743527,-39.34315490722656,25.06014633178711,-52.59923934936523,60.33624267578125,49.61291885375977,619802.7402036251,-0.0388641357421875,-0.1489410400390625,-0.82562255859375,619802.7346076251,-0.2545859496705608,0.1081680160990944,0.2333656157887004,619802.712940625,2.719826902056727,0.02270066560998952,0.1696969685463157,-0.1414197087287903,-0.01795464381575584,0.2795971632003784,-0.02716393023729324,0.07333314418792725,0.1348723918199539,0.006679601138892682,0.08523122901490057,0.9744672961821691,0.2076162546638776,0.02237267047166824,-0.1688836812973022,-0.9853820204734802,192.168.1.24,100.109.58.95,5,0
2015-04-09 17:44:37.777,158,1428590676.837569,51.73570564487179,39.26768892448327,94.08777,1428590677.743527,-39.34315490722656,25.06014633178711,-52.59923934936523,60.33624267578125,49.61291885375977,619802.7596656251,-0.0109405517578125,-0.2003021240234375,-0.841827392578125,619802.7563056251,-0.2569867893932672,0.0310956015199832,0.2145940585291679,619802.7346076251,2.725550001705112,0.02214072698657351,0.166335822839634,-0.1732139438390732,0.01919070817530155,0.2429991811513901,-0.05814927443861961,0.03054483979940414,0.1640569418668747,0.006361305335036642,0.08355452522514675,0.9751897085917488,0.2048980413903055,0.02183335833251476,-0.1655698716640472,-0.9859563708305359,192.168.1.24,100.109.58.95,5,0
2015-04-09 17:44:37.793,159,1428590676.837569,51.73570564487179,39.26768892448327,94.08777,1428590677.783271,-39.89068603515625,25.33391189575195,-52.99863433837891,60.51456069946289,49.79123687744141,619802.7791436251,0.027191162109375,-0.2319488525390625,-0.8954010009765625,619802.7563056251,-0.2569867893932672,0.0310956015199832,0.2145940585291679,619802.7563056251,2.730568203346093,0.02056672889546985,0.1625952377149546,-0.175615057349205,-0.05788141489028931,0.2242275923490524,-0.04934676736593246,-0.008484623394906521,0.1493673026561737,0.006537607712681968,0.081586540121152,0.9758420784699349,0.2025663694790936,0.02029403299093246,-0.161879763007164,-0.9866017699241638,192.168.1.24,100.109.58.95,5,0
2015-04-09 17:44:37.813,160,1428590676.837569,51.73570564487179,39.26768892448327,94.08777,1428590677.805694,-39.71958923339844,25.36813354492188,-52.83222198486328,60.42145538330078,49.6981315612793,619802.798613625,0.0699005126953125,-0.2347259521484375,-0.9500274658203125,619802.7779506251,-0.2518998853951069,0.09371131243770824,0.223602999864688,619802.7779506251,2.735799193524573,0.01936896442127859,0.1589291915252722,-0.1705285161733627,0.004734678659588099,0.2332364916801453,-0.01320325769484043,-0.05475171282887459,0.1253346651792526,0.006539370966576635,0.07969430728863101,0.9765051792523879,0.20010919245856,0.01912366785109043,-0.1582609862089157,-0.9872121214866638,192.168.1.24,100.109.58.95,5,0
2015-04-09 17:44:37.857,161,1428590677.835519,51.73567936760535,39.26756294447861,92.39014,1428590677.805694,-39.71958923339844,25.36813354492188,-52.83222198486328,60.42145538330078,49.6981315612793,619802.8180716251,0.0886383056640625,-0.218414306640625,-0.954559326171875,619802.821308625,-0.005090632423686464,0.07833928030966186,0.05625821276348787,619802.799621625,2.740101174524721,0.0184197820966025,0.1568055507395118,-0.04628128185868263,-0.02278674021363258,0.158531054854393,0.05170774832367897,-0.07856220006942749,0.03753615543246269,0.006619762918267361,0.07857714754972304,0.9770103183212486,0.1980723315248143,0.01819276437163353,-0.15616375207901,-0.9875636100769043,192.168.1.24,100.109.58.95,5,0
2015-04-09 17:44:37.859,162,1428590677.835519,51.73567936760535,39.26756294447861,92.39014,1428590677.846594,-40.06181335449219,26.05255126953125,-52.76565551757812,60.16451644897461,49.44119262695312,619802.837524625,0.0788116455078125,-0.210479736328125,-1.020339965820312,619802.8429756251,0.09723334297933803,0.05320942594756516,0.0006391586616190172,619802.821308625,2.742243212924082,0.01771672545746613,0.1576034622796388,0.07627996057271957,-0.01063648425042629,0.06589161604642868,0.07114206999540329,-0.06146248430013657,0.03289194032549858,0.006958279910957999,0.0789046786744978,0.9771895352692007,0.1970437671795968,0.01749623380601406,-0.156951829791069,-0.9874512553215027,192.168.1.24,100.109.58.95,5,0
2015-04-09 17:44:37.872,163,1428590677.835519,51.73567936760535,39.26756294447861,92.39014,1428590677.846594,-40.06181335449219,26.05255126953125,-52.76565551757812,60.16451644897461,49.44119262695312,619802.856989625,0.0507354736328125,-0.205780029296875,-1.051788330078125,619802.864643625,0.1675309420613966,-0.01772839706054848,-0.05093961375049063,619802.8429756251,2.742877340843008,0.01727071646743656,0.1606507625673337,0.1786036640405655,-0.03576605021953583,0.01027253363281488,0.06176416575908661,-0.05051911249756813,-0.03336378559470177,0.007452995629960428,0.08035149176791795,0.9771342923303133,0.196714680130784,0.01704748161137104,-0.1599606275558472,-0.9869762063026428,192.168.1.24,100.109.58.95,5,0
2015-04-09 17:44:37.891,164,1428590677.835519,51.73567936760535,39.26756294447861,92.39014,1428590677.882101,-40.19869995117188,25.64189910888672,-52.43282318115234,60.36270141601562,49.63937759399414,619802.876465625,0.0565948486328125,-0.2244873046875,-1.052230834960938,619802.864643625,0.1675309420613966,-0.01772839706054848,-0.05093961375049063,619802.8429756251,2.742877340843008,0.01727071646743656,0.1606507625673337,0.1786036640405655,-0.03576605021953583,0.01027253363281488,0.06176416575908661,-0.05051911249756813,-0.03336378559470177,0.007452995629960428,0.08035149176791795,0.9771342923303133,0.196714680130784,0.01704748161137104,-0.1599606275558472,-0.9869762063026428,192.168.1.24,100.109.58.95,5,0
2015-04-09 17:44:37.933,165,1428590677.835519,51.73567936760535,39.26756294447861,92.39014,1428590677.882101,-40.19869995117188,25.64189910888672,-52.43282318115234,60.36270141601562,49.63937759399414,619802.8959356251,0.041961669921875,-0.2601470947265625,-1.067779541015625,619802.886341625,0.1686976729349603,-0.01052827473741025,-0.06178453834151131,619802.864643625,2.742389952927847,0.01540245475430984,0.1654462874698397,0.2489009201526642,-0.106703482568264,-0.0413062795996666,0.03554394096136093,-0.04108748957514763,-0.06556037068367004,0.008860605374335084,0.08250764130824594,0.9768911907304341,0.1969710137848562,0.01519153267145157,-0.1646925359964371,-0.9862279295921326,192.168.1.24,100.109.58.95,5,0
2015-04-09 17:44:37.935,166,1428590677.835519,51.73567936760535,39.26756294447861,92.39014,1428590677.921464,-40.26713562011719,25.09436798095703,-52.23312759399414,60.49006652832031,49.76674270629883,619802.915404625,0.0211029052734375,-0.2694244384765625,-1.066940307617188,619802.908008625,0.1383139343743553,-0.0177358539116007,-0.01985466487486775,619802.886341625,2.740761395073246,0.01551355994008239,0.1741204802705056,0.2500568926334381,-0.09949091076850891,-0.05213566869497299,0.03625056147575378,-0.06856404989957809,-0.07578609883785248,0.009736600929331955,0.0867456655595492,0.9763772755995374,0.1976557709802776,0.01527837105095387,-0.17324198782444,-0.9847607612609863,192.168.1.24,100.109.58.95,5,0
