loggingTime,loggingSample,locationTimestamp_since1970,locationLatitude,locationLongitude,locationAltitude,locationSpeed,locationCourse,locationVerticalAccuracy,locationHorizontalAccuracy,locationFloor,locationHeadingTimestamp_since1970,locationHeadingX,locationHeadingY,locationHeadingZ,locationTrueHeading,locationMagneticHeading,locationHeadingAccuracy,accelerometerTimestamp_sinceReboot,accelerometerAccelerationX,accelerometerAccelerationY,accelerometerAccelerationZ,gyroTimestamp_sinceReboot,gyroRotationX,gyroRotationY,gyroRotationZ,motionTimestamp_sinceReboot,motionYaw,motionRoll,motionPitch,motionRotationRateX,motionRotationRateY,motionRotationRateZ,motionUserAccelerationX,motionUserAccelerationY,motionUserAccelerationZ,motionAttitudeReferenceFrame,motionQuaternionX,motionQuaternionY,motionQuaternionZ,motionQuaternionW,motionGravityX,motionGravityY,motionGravityZ,motionMagneticFieldX,motionMagneticFieldY,motionMagneticFieldZ,motionMagneticFieldCalibrationAccuracy
2015-05-02 22:59:16.104,1,1430596750.728477,51.73546405205943,39.2674356138313,94.36927,-1,-1,10,165,-9999,1430596755.978796,-20.82963943481445,0.5198135375976562,-40.95451354980469,84.92051696777344,75.49709320068359,10,168642.1782721667,0.1210479736328125,-0.0418701171875,-1.102462768554688,168642.1555541667,-0.1711544390405584,-0.2350007966980091,0.05879593896622438,168642.1555541667,-0.1534754651455059,0.04365940504338282,0.1217271294951864,-0.08611778169870377,-0.3237517774105072,0.06979013979434967,0.05076311528682709,0.06240574270486832,-0.2065113633871078,XArbitraryZVertical,0.06230282751898323,0.0170614751042962,-0.07517845915981253,0.9950756066896381,0.04332257807254791,-0.1214267387986183,-0.9916545152664185,0,0,0,-1
2015-05-02 22:59:16.206,2,1430596750.728477,51.73546405205943,39.2674356138313,94.36927,-1,-1,10,165,-9999,1430596756.098225,-21.24029159545898,1.683326721191406,-41.22077178955078,84.60308074951172,75.17965698242188,10,168642.2756041667,0.189544677734375,-0.155059814453125,-0.8770904541015625,168642.2530951667,-0.0789925537250583,0.3229913727981181,0.2969690931547359,168642.2530951667,-0.1234735820910604,0.05104537271482059,0.1552422435527716,0.006041189655661583,0.2342452853918076,0.3079620599746704,0.1166130974888802,-0.0121438717469573,0.1819692254066467,XArbitraryZVertical,0.07894004139210746,0.02061193327527903,-0.05951664963646223,0.9948876250550656,0.05040960758924484,-0.1546194404363632,-0.9866872429847717,0,0,0,-1
2015-05-02 22:59:16.293,3,1430596750.728477,51.73546405205943,39.2674356138313,94.36927,-1,-1,10,165,-9999,1430596756.216324,-21.20606803894043,2.128204345703125,-41.05436706542969,80.20388793945312,70.78046417236328,10,168642.3729221667,0.1246337890625,-0.11090087890625,-1.046279907226562,168642.3506221667,-0.1622304525438119,0.2870352359726313,-0.08167409062665909,168642.3506221667,-0.1108237652840719,0.05744741489296359,0.1287671509590241,-0.07721482962369919,0.1983702629804611,-0.07070633769035339,0.0953269824385643,0.04502231627702713,-0.05102220922708511,XArbitraryZVertical,0.06580116018614154,0.02505440730516939,-0.05340101506969781,0.9960877549605057,0.0569404736161232,-0.128411591053009,-0.9900849461555481,0,0,0,-1
2015-05-02 22:59:16.391,4,1430596750.728477,51.73546405205943,39.2674356138313,94.36927,-1,-1,10,165,-9999,1430596756.333729,-20.55587959289551,3.052154541015625,-40.08915710449219,80.50827026367188,71.08484649658203,10,168642.4702791667,0.1114044189453125,-0.236572265625,-0.8484954833984375,168642.4481641667,-0.1921998032388006,0.3464250598619433,0.1426271900758476,168642.4481641667,-0.1090242855527458,0.08607644393556782,0.1321066659901027,-0.1071883961558342,0.2577806711196899,0.1535890847444534,0.02088852040469646,-0.1044833138585091,0.1631384193897247,XArbitraryZVertical,0.06818534343942569,0.03927436125067175,-0.05148033244361555,0.9955692134954169,0.08522109687328339,-0.1317227482795715,-0.9876165390014648,0,0,0,-1
2015-05-02 22:59:16.488,5,1430596750.728477,51.73546405205943,39.2674356138313,94.36927,-1,-1,10,165,-9999,1430596756.452731,-19.80301284790039,3.941902160644531,-41.487060546875,79.21686553955078,69.79344177246094,10,168642.5676031667,0.170166015625,-0.207855224609375,-1.079071044921875,168642.5456781667,-0.1185117337729621,-0.01828553036059306,0.03445145080959205,168642.5456781667,-0.1029212734615294,0.09154801617240796,0.1237741027814359,-0.03340283036231995,-0.1069033965468407,0.045369703322649,0.04361757263541222,-0.08432061970233917,-0.04679420217871666,XArbitraryZVertical,0.06405017588799876,0.04243198968683973,-0.0484594034808733,0.9958658481111795,0.09072080254554749,-0.1234583109617233,-0.9881942272186279,0,0,0,-1
2015-05-02 22:59:16.585,6,1430596750.728477,51.73546405205943,39.2674356138313,94.36927,-1,-1,10,165,-9999,1430596756.571705,-19.42658805847168,3.4285888671875,-41.38722991943359,79.31851959228516,69.89509582519531,10,168642.6649181667,0.0991058349609375,-0.248291015625,-1.050628662109375,168642.6432251667,-0.1548622847558897,-0.1162320678798543,-0.1317103601353948,168642.6432251667,-0.1014372818458157,0.07487452406772525,0.1291039625624536,-0.06973320245742798,-0.204828754067421,-0.1207979395985603,0.05719614028930664,-0.06795543432235718,-0.1046982333064079,XArbitraryZVertical,0.06627262519694704,0.03403451204394457,-0.04814455826164557,0.996058076945925,0.07418203353881836,-0.1287456154823303,-0.9888991713523865,0,0,0,-1
2015-05-02 22:59:16.685,7,1430596750.728477,51.73546405205943,39.2674356138313,94.36927,-1,-1,10,165,-9999,1430596756.571705,-19.42658805847168,3.4285888671875,-41.38722991943359,79.31851959228516,69.89509582519531,10,168642.7623261667,0.06524658203125,0.0404205322265625,-1.17919921875,168642.7408411667,0.3590271381401983,0.1059096554947072,-0.4230724339310779,168642.7408411667,-0.1355598914485625,0.06735972751896462,0.1099108875985394,0.44417604804039,0.01731565035879612,-0.4121597111225128,-0.0177693497389555,0.1301517635583878,-0.2653530538082123,XArbitraryZVertical,0.05704778083288489,0.02982741453365801,-0.06574209732066422,0.9957579287578626,0.06690265238285065,-0.1096897274255753,-0.9917117357254028,0,0,0,-1
2015-05-02 22:59:16.781,8,1430596750.728477,51.73546405205943,39.2674356138313,94.36927,-1,-1,10,165,-9999,1430596756.690754,-20.86386299133301,4.181442260742188,-41.18752288818359,79.95303344726562,70.52960968017578,10,168642.8596621667,-0.1073455810546875,-0.12493896484375,-0.8263397216796875,168642.8383641667,-0.07981706839854683,-0.07749186245079864,-0.6614266830737148,168642.8383641667,-0.1788564805740925,0.06462400724979241,0.1831430491928658,0.005330182611942291,-0.1660841405391693,-0.6505141854286194,-0.1350474804639816,0.07593504339456558,0.2390819191932678,XArbitraryZVertical,0.09390381275785831,0.02387998728174704,-0.08594607713641554,0.991577073142481,0.06349902600049973,-0.1821209490299225,-0.9812236428260803,0,0,0,-1
2015-05-02 22:59:16.877,9,1430596750.728477,51.73546405205943,39.2674356138313,94.36927,-1,-1,10,165,-9999,1430596756.809949,-20.48743057250977,0.1776123046875,-40.08915710449219,82.77069854736328,73.34727478027344,10,168642.9570061667,0.08807373046875,-0.1101837158203125,-0.9297637939453125,168642.9359051667,0.3507076892108998,-0.1153042225560707,-0.3083533078664976,168642.9359051667,-0.2401012058987709,0.05148932976041469,0.1677990169409145,0.4358106553554535,-0.2039140164852142,-0.297437310218811,0.02735076099634171,0.1257071495056152,-0.08184972405433655,XArbitraryZVertical,0.08624245071998669,0.0154337506239445,-0.1171599680283511,0.9892409114705433,0.05074372142553329,-0.1670126914978027,-0.9846480488777161,0,0,0,-1
2015-05-02 22:59:16.975,10,1430596750.728477,51.73546405205943,39.2674356138313,94.36927,-1,-1,10,165,-9999,1430596756.928508,-21.37717819213867,-1.396560668945312,-40.48857116699219,85.63685607910156,76.21343231201172,10,168643.0543561667,0.018463134765625,-0.2301177978515625,-0.8505706787109375,168643.0334131667,-0.06917454405037218,-0.06758570214403091,-0.003953196322113621,168643.0334131667,-0.2479826484610216,0.03683529601035853,0.1967553191139547,0.01590150967240334,-0.1561829745769501,0.006958851590752602,0.02575796097517014,-0.02410094626247883,0.2117302417755127,XArbitraryZVertical,0.09971512484706867,0.006041787631696245,-0.1212600304047518,0.9875810831041532,0.03611642867326736,-0.1954882889986038,-0.9800407886505127,0,0,0,-1
2015-05-02 22:59:17.087,11,1430596750.728477,51.73546405205943,39.2674356138313,94.36927,-1,-1,10,165,-9999,1430596757.047448,-21.71938323974609,-2.628517150878906,-39.95603942871094,87.14940643310547,77.72598266601562,10,168643.1516771667,0.0650787353515625,-0.251434326171875,-1.12432861328125,168643.1309481667,0.1116247991940172,0.1650603275181301,-0.05049326795179335,168643.1309481667,-0.2638595454355734,0.03114231148934081,0.2079647589499783,0.1967261582612991,0.0764477327466011,-0.03957612812519073,-0.03077154420316219,-0.04833757877349854,-0.179812416434288,XArbitraryZVertical,0.1049178324673462,0.001699527619730247,-0.1292189015129372,0.9860485969403335,0.03046636842191219,-0.206468939781189,-0.9779787063598633,0,0,0,-1
2015-05-02 22:59:17.169,12,1430596757.154137,51.73558637038966,39.26783015955171,95.29553,0,-1,16,30,-9999,1430596757.166362,-21.41139602661133,-1.362342834472656,-40.98781585693359,83.44881439208984,74.025390625,10,168643.2490281667,0.0377197265625,-0.26934814453125,-1.063766479492188,168643.2284821667,-0.6980118585486782,0.01029924288366344,0.5824572988501401,168643.2284821667,-0.2226497259575356,0.03866487345561057,0.202609734686595,-0.6129087209701538,-0.0783112496137619,0.5933742523193359,0.02574935369193554,-0.1293705552816391,-0.01467183511704206,XArbitraryZVertical,0.102623465539557,0.007879940734562871,-0.1085619292310702,0.9887470042312571,0.03786453977227211,-0.2012263685464859,-0.9788126349449158,0,0,0,-1
2015-05-02 22:59:17.266,13,1430596757.154137,51.73558637038966,39.26783015955171,95.29553,0,-1,16,30,-9999,1430596757.166362,-21.41139602661133,-1.362342834472656,-40.98781585693359,83.44881439208984,74.025390625,10,168643.3463191667,0.1009979248046875,-0.0887298583984375,-0.858978271484375,168643.3260161667,0.8312932174111108,0.5348527617327558,0.3316799358545016,168643.3260161667,-0.1849937447393689,0.03265064898233622,0.1976635775496113,0.9163947105407715,0.4462439715862274,0.3425966799259186,0.05870430916547775,0.2241804599761963,-0.1538598835468292,XArbitraryZVertical,0.09973654834966519,0.007062960174382585,-0.09029817587036139,0.9908829269653111,0.03200919181108475,-0.1963789463043213,-0.9800054430961609,0,0,0,-1
2015-05-02 22:59:17.364,14,1430596757.154137,51.73558637038966,39.26783015955171,95.29553,0,-1,16,30,-9999,1430596757.283745,-20.52165603637695,-0.3357162475585938,-41.18752288818359,80.96799468994141,71.54457092285156,10,168643.4436641667,0.15618896484375,-0.077545166015625,-0.9444732666015625,168643.4235501667,-0.5840765007929083,-0.2974553863697843,0.05936558912339233,168643.4235501667,-0.1697563272012814,0.03857831593990291,0.2241005252851232,-0.4989766776561737,-0.3860624134540558,0.07028210908174515,0.1306848675012589,0.08491562306880951,0.1504011452198029,XArbitraryZVertical,0.1130175848678898,0.009620428146323245,-0.08208003850677223,0.9901501604057964,0.03760431334376335,-0.222229465842247,-0.9742689728736877,0,0,0,-1
2015-05-02 22:59:17.461,15,1430596757.154137,51.73558637038966,39.26783015955171,95.29553,0,-1,16,30,-9999,1430596757.40225,-20.5900993347168,-0.88323974609375,-41.85317993164062,81.37859344482422,71.95516967773438,10,168643.5409891667,0.0223236083984375,-0.1961822509765625,-0.84173583984375,168643.5210841667,0.2584169068986398,0.3083815373740524,0.3674656303702233,168643.4235501667,-0.1697563272012814,0.03857831593990291,0.2241005252851232,-0.4989766776561737,-0.3860624134540558,0.07028210908174515,0.1306848675012589,0.08491562306880951,0.1504011452198029,XArbitraryZVertical,0.1130175848678898,0.009620428146323245,-0.08208003850677223,0.9901501604057964,0.03760431334376335,-0.222229465842247,-0.9742689728736877,0,0,0,-1
2015-05-02 22:59:17.566,16,1430596757.154137,51.73558637038966,39.26783015955171,95.29553,0,-1,16,30,-9999,1430596757.521174,-20.35054779052734,-0.7121505737304688,-41.42050170898438,80.74001312255859,71.31658935546875,10,168643.6383401667,0.1040191650390625,-0.252716064453125,-1.043182373046875,168643.6186191667,-0.535198706358357,0.06025588387580582,0.1232713352731517,168643.5210841667,-0.159593370638199,0.02957149526345647,0.2052106327550565,0.3433903157711029,0.2198491841554642,0.3783593773841858,0.02110201865434647,0.0759810209274292,0.008207363076508045,XArbitraryZVertical,0.1032606515662644,0.00649700688633142,-0.07777456873085424,0.9915876881034503,0.02894680947065353,-0.2037733793258667,-0.9785900712013245,0,0,0,-1
2015-05-02 22:59:17.656,17,1430596757.154137,51.73558637038966,39.26783015955171,95.29553,0,-1,16,30,-9999,1430596757.640048,-21.06918716430664,1.512191772460938,-41.986328125,79.20163726806641,69.77821350097656,10,168643.7356611667,-0.0739898681640625,-0.15576171875,-1.081390380859375,168643.7161531667,-0.1686587907830452,-0.1170166351369916,-0.4702471368485235,168643.6186191667,-0.1173694735601775,0.04794423814284573,0.202823751793609,-0.4502099454402924,-0.02829006128013134,0.1341241449117661,0.04228992760181427,-0.07960037887096405,0.0792519822716713,XArbitraryZVertical,0.102433457281819,0.01786960252709993,-0.05591047457149755,0.993006587575326,0.04694347083568573,-0.2014359980821609,-0.9783761501312256,0,0,0,-1
2015-05-02 22:59:17.753,18,1430596757.154137,51.73558637038966,39.26783015955171,95.29553,0,-1,16,30,-9999,1430596757.640048,-21.06918716430664,1.512191772460938,-41.986328125,79.20163726806641,69.77821350097656,10,168643.8329811667,-0.100189208984375,-0.0325775146484375,-1.098114013671875,168643.8136871667,0.3302114688294319,0.09955535313377811,-1.085646939434617,168643.7161531667,-0.1445927154547063,0.01263548042548341,0.1727621571150025,-0.08363690972328186,-0.2055378705263138,-0.4593970775604248,-0.0419422946870327,0.03843541070818901,-0.1968802213668823,XArbitraryZVertical,0.08650125593639124,4.598322640736886e-05,-0.07141900723365503,0.9936885105568622,0.01244705356657505,-0.1719040423631668,-0.9850350618362427,0,0,0,-1
2015-05-02 22:59:17.850,19,1430596757.154137,51.73558637038966,39.26783015955171,95.29553,0,-1,16,30,-9999,1430596757.759059,-20.6927604675293,0.0406951904296875,-41.95304870605469,83.22773742675781,73.80431365966797,10,168643.9303331667,0.0353546142578125,-0.11956787109375,-0.902557373046875,168643.9112211667,0.2000974074514306,0.2145605026994329,-0.6284346445414861,168643.8136871667,-0.2259617105506974,0.03104456136208443,0.1720335886922546,0.4152255356311798,0.01102062687277794,-1.074794292449951,-0.07795993238687515,0.1676309704780579,-0.1571275293827057,XArbitraryZVertical,0.08709620214320382,0.005681209821294519,-0.110985320133528,0.9899819362705767,0.0305813904851675,-0.1711862683296204,-0.9847639799118042,0,0,0,-1
2015-05-02 22:59:17.948,20,1430596757.154137,51.73558637038966,39.26783015955171,95.29553,0,-1,16,30,-9999,1430596757.877902,-20.00834274291992,-5.503078460693359,-42.21932220458984,91.00682830810547,81.58340454101562,10,168644.0276541667,0.1107330322265625,-0.1906890869140625,-0.8763885498046875,168644.0087551667,0.04359221861907102,-0.2423143696835847,-0.2363036151032759,168643.9112211667,-0.3110161928981431,0.056362549068581,0.2212032098297789,0.28510981798172,0.1260274946689606,-0.6175822019577026,-0.08636270463466644,0.1231817528605461,0.08158308267593384,XArbitraryZVertical,0.1133385688060203,0.01057891858301593,-0.1508020113456809,0.9819883953879999,0.05496012046933174,-0.2194036692380905,-0.9740849137306213,0,0,0,-1
2015-05-02 22:59:18.050,21,1430596757.154137,51.73558637038966,39.26783015955171,95.29553,0,-1,16,30,-9999,1430596757.997351,-20.11100578308105,-5.468849182128906,-41.91976165771484,90.63734436035156,81.21392059326172,10,168644.1249741667,-0.0199432373046875,-0.3061370849609375,-0.9883270263671875,168644.1062891667,-0.441965963968536,0.4656435965882125,-0.07495173940308107,168644.1062891667,-0.3607210234553244,0.04503764867235559,0.2228742106601213,-0.3569568693637848,0.3771140277385712,-0.06409967690706253,-0.07389236986637115,-0.06711331754922867,0.05969594046473503,XArbitraryZVertical,0.113389123305233,0.002070620292068054,-0.1757629724838106,0.9778783138772005,0.04390884935855865,-0.2210336476564407,-0.9742772579193115,0,0,0,-1
2015-05-02 22:59:18.142,22,1430596757.154137,51.73558637038966,39.26783015955171,95.29553,0,-1,16,30,-9999,1430596758.115705,-19.15281867980957,-3.620929718017578,-42.31918334960938,89.50489807128906,80.08147430419922,10,168644.2223261667,0.174407958984375,-0.23956298828125,-1.269424438476562,168644.2038191667,-0.1356305332599915,0.3564713024420492,0.8092867183754591,168644.2038191667,-0.3319594440296404,0.08114829372612803,0.1900047610770741,-0.0506230928003788,0.2679434716701508,0.8201385736465454,0.1249893754720688,-0.03862971439957619,-0.323748916387558,XArbitraryZVertical,0.1001504287139499,0.02416548990145194,-0.1605433684719182,0.981637279022099,0.07960046827793121,-0.1888635754585266,-0.9787718653678894,0,0,0,-1
2015-05-02 22:59:18.240,23,1430596758.157334,51.73562618442973,39.26775489006123,95.63794,0,-1,12,10,-9999,1430596758.233099,-17.27067756652832,-3.176063537597656,-42.55216979980469,83.99909210205078,74.57566833496094,10,168644.3196461667,0.083984375,-0.170379638671875,-0.8475799560546875,168644.3013581667,0.6111211679787719,0.3128678985463999,0.8918505711223136,168644.3013581667,-0.232081359814052,0.0764165989970452,0.2381486508319295,0.6961255073547363,0.2243416607379913,0.9027021527290344,-0.01379330642521381,0.1054412871599197,0.04402891919016838,XArbitraryZVertical,0.1222994968244745,0.02392955916324551,-0.1103694277354244,0.9860470570394059,0.07418759167194366,-0.2359039336442947,-0.9689404368400574,0,0,0,-1
2015-05-02 22:59:18.337,24,1430596758.157334,51.73562618442973,39.26775489006123,95.63794,0,-1,12,10,-9999,1430596758.233099,-17.27067756652832,-3.176063537597656,-42.55216979980469,83.99909210205078,74.57566833496094,10,168644.4169961667,0.169586181640625,0.0322723388671875,-1.142379760742188,168644.3988731667,-0.1512976436368186,-0.1044899243175859,0.27586833520582,168644.3988731667,-0.1862020572520275,0.06791768208605718,0.2380870969309835,-0.06642330437898636,-0.1929740160703659,0.2867035269737244,0.08402758091688156,0.2615704238414764,-0.1144949942827225,XArbitraryZVertical,0.1213141620509202,0.02253143767486884,-0.08824061397503861,0.9884274391413258,0.06595105677843094,-0.2358441203832626,-0.9695504307746887,0,0,0,-1
2015-05-02 22:59:18.452,25,1430596758.157334,51.73562618442973,39.26775489006123,95.63794,0,-1,12,10,-9999,1430596758.351968,-18.16041946411133,-3.176063537597656,-43.15126800537109,82.49122619628906,73.06780242919922,10,168644.5143471667,0.006072998046875,-0.221832275390625,-0.5916595458984375,168644.4963961667,-0.2940481380711369,0.0233854838480948,0.5814021544262508,168644.4963961667,-0.1460641971431471,0.0561411898346083,0.2881306306275647,-0.209182396531105,-0.06509540975093842,0.592236340045929,-0.02701942250132561,0.1137502565979958,0.3652862012386322,XArbitraryZVertical,0.1451551284333004,0.01723051855304309,-0.06816409031912654,0.9869076728401981,0.05379859730601311,-0.2841604053974152,-0.9572662115097046,0,0,0,-1
2015-05-02 22:59:18.532,26,1430596758.157334,51.73562618442973,39.26775489006123,95.63794,0,-1,12,10,-9999,1430596758.452314,-18.46840286254883,-4.852882385253906,-43.2510986328125,81.11414337158203,71.69071960449219,10,168644.6116601667,0.06488037109375,-0.32000732421875,-1.082443237304688,168644.5939301667,-0.5234176806441735,0.2356000079432769,-0.05720177073770295,168644.5939301667,-0.1225026592360228,0.07095340813276887,0.2435097764716038,-0.4384697675704956,0.1471047103404999,-0.04642203077673912,0.0007777214632369578,-0.05344532802700996,-0.03192893415689468,XArbitraryZVertical,0.1233053583568439,0.02771075452818013,-0.05642183085062669,0.9903759284672748,0.0688023567199707,-0.2411103397607803,-0.968055784702301,0,0,0,-1
2015-05-02 22:59:18.629,27,1430596758.157334,51.73562618442973,39.26775489006123,95.63794,0,-1,12,10,-9999,1430596758.570056,-18.91327285766602,-2.423206329345703,-44.94855499267578,80.75348663330078,71.33006286621094,10,168644.7090201667,-0.03515625,-0.2404327392578125,-1.149459838867188,168644.6914641667,-0.3643654445452622,-0.2980924145025313,-0.4878370495323878,168644.6914641667,-0.1494281641733091,0.04696480556579965,0.206743767111136,-0.2794294655323029,-0.3865910470485687,-0.4770573973655701,-0.07651112973690033,-0.01642084307968616,-0.1968131214380264,XArbitraryZVertical,0.1046149553450455,0.0155894554108892,-0.07180954156519917,0.9917943686764542,0.04594777151942253,-0.2052741050720215,-0.9776253700256348,0,0,0,-1
2015-05-02 22:59:18.726,28,1430596758.157334,51.73562618442973,39.26775489006123,95.63794,0,-1,12,10,-9999,1430596758.689121,-19.70035552978516,-1.97833251953125,-43.78363037109375,82.49082183837891,73.06739807128906,10,168644.8063711667,-0.0937042236328125,-0.063323974609375,-1.042282104492188,168644.7889981667,0.1828262751500487,-0.7301458265776833,-1.130136909657153,168644.7889981667,-0.217509311908138,0.01233990036035213,0.2149302695384089,0.2677605748176575,-0.8186427354812622,-1.119357347488403,-0.0667279064655304,0.1553264260292053,-0.1018794998526573,XArbitraryZVertical,0.1072885194090472,-0.005543571970280171,-0.1072543292963267,0.9884103152335092,0.01205566897988319,-0.2132793068885803,-0.9769169092178345,0,0,0,-1
2015-05-02 22:59:18.824,29,1430596758.157334,51.73562618442973,39.26775489006123,95.63794,0,-1,12,10,-9999,1430596758.807993,-22.91711807250977,-4.92132568359375,-41.58693695068359,89.79790496826172,80.37448120117188,10,168644.9036921667,-0.100982666015625,-0.01214599609375,-0.947113037109375,168644.8865321667,0.4460400678041392,0.3287677692024999,-0.9755558547123762,168644.8865321667,-0.357686193661111,-0.01727725402590276,0.2285214243033581,0.530968189239502,0.240271270275116,-0.9647766351699829,-0.1075013652443886,0.223653718829155,0.004450916778296232,XArbitraryZVertical,0.1106628917428753,-0.02872633054758647,-0.1776938681265204,0.9774218186405472,-0.01682724989950657,-0.2265376299619675,-0.973857045173645,0,0,0,-1
2015-05-02 22:59:18.926,30,1430596758.157334,51.73562618442973,39.26775489006123,95.63794,0,-1,12,10,-9999,1430596758.807993,-22.91711807250977,-4.92132568359375,-41.58693695068359,89.79790496826172,80.37448120117188,10,168645.0010431667,0.1070098876953125,-0.2422027587890625,-0.8382720947265625,168644.9840671667,-0.1529157803151508,0.3688376909638322,-0.6533117649161343,168644.9840671667,-0.4376692994532665,0.03386340406835615,0.2524842091213123,-0.067989282310009,0.2803429067134857,-0.6425328254699707,0.06215669214725494,0.03212828934192657,0.1793028116226196,XArbitraryZVertical,0.1265330037718685,-0.01093393436151758,-0.2132528527139262,0.9687069055422302,0.03278349339962006,-0.2498101741075516,-0.9677397012710571,0,0,0,-1
2015-05-02 22:59:19.018,31,1430596758.157334,51.73562618442973,39.26775489006123,95.63794,0,-1,12,10,-9999,1430596758.926848,-20.48743438720703,-8.788284301757812,-41.75335693359375,96.01194000244141,86.58851623535156,10,168645.0983631667,0.1358184814453125,-0.359649658203125,-1.086929321289062,168645.0816011667,-0.5841143176803875,0.3537341054736658,0.1003551004091289,168645.0816011667,-0.4706377676006293,0.06384072364629675,0.2306865692003119,-0.4991894662380219,0.2652410566806793,0.1111338511109352,0.03640339151024818,-0.1193612441420555,-0.02349915355443954,XArbitraryZVertical,0.1192504992795599,0.004009763542467433,-0.2279140979051568,0.9663427984902524,0.06210735067725182,-0.2286459654569626,-0.9715265035629272,0,0,0,-1
2015-05-02 22:59:19.116,32,1430596758.157334,51.73562618442973,39.26775489006123,95.63794,0,-1,12,10,-9999,1430596759.045862,-17.85243034362793,-8.480300903320312,-43.25112915039062,96.24094390869141,86.81752014160156,10,168645.1957131667,0.15447998046875,-0.285980224609375,-0.9487457275390625,168645.1791351667,-0.5889974898551567,0.2538908646260502,1.216400159474237,168645.1791351667,-0.3885721360292392,0.08922813786352846,0.2098676928257913,-0.5040742754936218,0.1653995364904404,1.227178692817688,0.1102788895368576,-0.06730426847934723,-0.0672447681427002,XArbitraryZVertical,0.1112317319706867,0.02331757945441355,-0.1872295704636693,0.9757196729774202,0.0871545821428299,-0.2083304971456528,-0.9741675853729248,0,0,0,-1
2015-05-02 22:59:19.213,33,1430596759.168275,51.73562618442973,39.26775489006123,96.27014,0,-1,12,10,-9999,1430596759.165582,-17.40756416320801,-3.518276214599609,-43.88351440429688,88.11723327636719,78.69380950927734,10,168645.2930741667,0.0210723876953125,0.098175048828125,-1.204345703125,168645.2766691667,0.1646019974945275,0.2784691783263914,0.5574251825000494,168645.2766691667,-0.2945306951221608,0.06530864616588013,0.1467406741361549,0.2495252341032028,0.1899803578853607,0.5682035088539124,-0.04704375937581062,0.2484179884195328,-0.2793202698230743,XArbitraryZVertical,0.07725017289648521,0.0214577419802571,-0.1438934667684272,0.9863400257101612,0.06456085294485092,-0.1462146192789078,-0.9871439337730408,0,0,0,-1
2015-05-02 22:59:19.311,34,1430596759.168275,51.73562618442973,39.26775489006123,96.27014,0,-1,12,10,-9999,1430596759.282061,-16.38093376159668,-2.28631591796875,-44.68231201171875,84.42547607421875,75.00205230712891,10,168645.3904211667,0.1472015380859375,-0.1113128662109375,-0.85186767578125,168645.3742031667,-0.5986162950803049,0.1397357960803486,0.2198820311896292,168645.3742031667,-0.2589736192239002,0.1032618066606032,0.188307622365137,-0.513694703578949,0.051248699426651,0.2306601107120514,0.04521289840340614,0.09938237071037292,0.2118158042430878,XArbitraryZVertical,0.09973784071295007,0.03882574810608072,-0.1235707449235229,0.9865471075488249,0.1012562140822411,-0.1871967017650604,-0.9770898222923279,0,0,0,-1
2015-05-02 22:59:19.408,35,1430596759.168275,51.73562618442973,39.26775489006123,96.27014,0,-1,12,10,-9999,1430596759.401104,-16.96269035339355,-0.06197357177734375,-45.38125610351562,82.33879852294922,72.91537475585938,10,168645.4877321667,0.121826171875,-0.1096038818359375,-0.9545745849609375,168645.4717371667,0.01091496572768976,-0.08614527178079312,0.216615131480429,168645.3742031667,-0.2589736192239002,0.1032618066606032,0.188307622365137,-0.513694703578949,0.051248699426651,0.2306601107120514,0.04521289840340614,0.09938237071037292,0.2118158042430878,XArbitraryZVertical,0.09973784071295007,0.03882574810608072,-0.1235707449235229,0.9865471075488249,0.1012562140822411,-0.1871967017650604,-0.9770898222923279,0,0,0,-1
2015-05-02 22:59:19.506,36,1430596759.168275,51.73562618442973,39.26775489006123,96.27014,0,-1,12,10,-9999,1430596759.401104,-16.96269035339355,-0.06197357177734375,-45.38125610351562,82.33879852294922,72.91537475585938,10,168645.5850741667,0.12261962890625,-0.2249908447265625,-0.9149627685546875,168645.5692721667,-0.180518379749386,0.2384439976713725,0.2802787962871003,168645.5692721667,-0.2120544241867415,0.08017771504135221,0.1611168480143113,-0.09561099857091904,0.149997353553772,0.2909855842590332,0.03744630515575409,-0.05268355831503868,0.1279818266630173,XArbitraryZVertical,0.08418279027265715,0.03121448022500908,-0.1021936773567826,0.9907044798296191,0.07905454933643341,-0.160420686006546,-0.9838778376579285,0,0,0,-1
2015-05-02 22:59:19.602,37,1430596759.168275,51.73562618442973,39.26775489006123,96.27014,0,-1,12,10,-9999,1430596759.519944,-16.99690628051758,-0.02773284912109375,-44.54917907714844,81.2305908203125,71.80716705322266,10,168645.6824081667,0.062042236328125,-0.1553802490234375,-1.1705322265625,168645.6668061667,-0.5430441126136214,-0.06659926727626556,-0.08752984923152532,168645.6668061667,-0.20161771428639,0.07305251570781952,0.1438445486222796,-0.4580518305301666,-0.1549917608499527,-0.07682383805513382,-0.004942496307194233,-0.03662841022014618,-0.1538060307502747,XArbitraryZVertical,0.07511338542193893,0.02901174043865922,-0.09770018709916983,0.991953109621593,0.07223375886678696,-0.1433490067720413,-0.9870325922966003,0,0,0,-1
2015-05-02 22:59:19.699,38,1430596759.168275,51.73562618442973,39.26775489006123,96.27014,0,-1,12,10,-9999,1430596759.638788,-17.7497730255127,2.846824645996094,-44.88200378417969,77.98935699462891,68.56593322753906,10,168645.7797551667,-0.0366973876953125,0.1183013916015625,-1.200210571289062,168645.7643361667,0.2698152363641789,-0.4314672503192256,-0.5943605636583583,168645.7643361667,-0.2214029675748455,0.04725167748791278,0.125770470907895,0.3548058569431305,-0.5198580026626587,-0.5836547017097473,-0.01800663955509663,0.1425900310277939,-0.2799258232116699,XArbitraryZVertical,0.06504636429526084,0.01649186428110502,-0.1087508671289224,0.9918015112930586,0.04686100780963898,-0.1254391521215439,-0.9909939765930176,0,0,0,-1
2015-05-02 22:59:19.808,39,1430596759.168275,51.73562618442973,39.26775489006123,96.27014,0,-1,12,10,-9999,1430596759.739296,-19.18704414367676,1.888633728027344,-44.74886322021484,79.48204803466797,70.05862426757812,10,168645.8770791667,0.06231689453125,-0.0309906005859375,-0.735260009765625,168645.8618741667,0.02281263789761875,0.4979136521489206,-0.1804467407160629,168645.8618741667,-0.2629316132804158,0.05786035315885296,0.1783792176053469,0.1078015863895416,0.4095246195793152,-0.169741153717041,-0.05176828056573868,0.1828973889350891,0.2443265020847321,XArbitraryZVertical,0.09204262630039137,0.01689129265982755,-0.1279575056909558,0.9873549087908269,0.05691049247980118,-0.1774347424507141,-0.9824856519699097,0,0,0,-1
2015-05-02 22:59:19.894,40,1430596759.168275,51.73562618442973,39.26775489006123,96.27014,0,-1,12,10,-9999,1430596759.858025,-18.09197616577148,0.2460556030273438,-44.88198852539062,81.32131958007812,71.89789581298828,10,168645.9744311667,0.1179656982421875,-0.103363037109375,-0.957763671875,168645.9594081667,-0.2371752677280588,0.06999559661444361,-0.1777199300759308,168645.9594081667,-0.2806805007327453,0.0648932225290377,0.1498366484688101,-0.1521879732608795,-0.01839172281324863,-0.167014554142952,0.07151427865028381,0.05509936809539795,0.01251684501767159,XArbitraryZVertical,0.07859848608498372,0.02156760381316965,-0.1370099627609762,0.9872109129031795,0.06412109732627869,-0.1492766141891479,-0.986714243888855,0,0,0,-1
2015-05-02 22:59:19.992,41,1430596759.168275,51.73562618442973,39.26775489006123,96.27014,0,-1,12,10,-9999,1430596759.975962,-17.57866287231445,1.785987854003906,-46.11346435546875,79.85736083984375,70.43393707275391,10,168646.0717511667,-0.0029144287109375,-0.1958465576171875,-1.029266357421875,168646.0569421667,-0.3672152932277559,0.3034477651385716,-0.03737506905428103,168646.0569421667,-0.2875695879233971,0.07660900864105431,0.1387423697010865,-0.2822296321392059,0.2150621563196182,-0.02666989527642727,-0.08893647044897079,-0.0831836462020874,0.0539073646068573,XArbitraryZVertical,0.07402406169514687,0.02788387209957559,-0.1402133154083684,0.9869565107688721,0.07579865306615829,-0.1382976770401001,-0.9874858856201172,0,0,0,-1
2015-05-02 22:59:20.089,42,1430596759.168275,51.73562618442973,39.26775489006123,96.27014,0,-1,12,10,-9999,1430596759.975962,-17.57866287231445,1.785987854003906,-46.11346435546875,79.85736083984375,70.43393707275391,10,168646.1691021667,0.13568115234375,-0.153564453125,-1.122817993164062,168646.1544771667,-0.06499790851280091,0.1492379548497513,0.6221466548917,168646.1544771667,-0.2572950024404646,0.08775447611688909,0.120577720782116,0.01998606696724892,0.06085408851504326,0.6328516602516174,0.04687506705522537,-0.0102837048470974,-0.2372922599315643,XArbitraryZVertical,0.06531403741028084,0.03569914565182074,-0.125315582727733,0.9893208035023285,0.08700554817914963,-0.1202857568860054,-0.9889193177223206,0,0,0,-1
2015-05-02 22:59:20.186,43,1430596760.177639,51.73562618442973,39.26775489006123,96.71521,0,-1,12,10,-9999,1430596760.094961,-16.44937896728516,3.599708557128906,-45.14823913574219,77.27276611328125,67.84934234619141,10,168646.2664531667,0.1852264404296875,0.300384521484375,-1.293838500976562,168646.2520111667,0.2471879544784297,-0.06869277820917685,0.7550897922956925,168646.2520111667,-0.1927390941416025,0.06810296755657616,0.1014575336374695,0.3321720957756042,-0.1570739895105362,0.7657945156097412,0.09799479693174362,0.2787127494812012,-0.3589653074741364,XArbitraryZVertical,0.05371407750642646,0.02896712067137232,-0.09432265805352036,0.9936694319417037,0.06770039349794388,-0.1012835651636124,-0.9925513863563538,0,0,0,-1
2015-05-02 22:59:20.287,44,1430596760.177639,51.73562618442973,39.26775489006123,96.71521,0,-1,12,10,-9999,1430596760.214039,-17.44178009033203,4.79742431640625,-45.3812255859375,75.23790740966797,65.81448364257812,10,168646.3638041667,0.1475830078125,-0.025909423828125,-0.687408447265625,168646.3495451667,-0.7809573422797411,0.0756923645022321,0.3185228548050741,168646.3495451667,-0.1338239740501631,0.05786612772268517,0.1482144035950657,-0.6959748268127441,-0.01268711965531111,0.3292273879051208,0.09993524104356766,0.1180550381541252,0.4531707167625427,XArbitraryZVertical,0.07577173306135225,0.02383671262514124,-0.06451355163695623,0.9947504497386658,0.05719976872205734,-0.1476723551750183,-0.9873809218406677,0,0,0,-1
2015-05-02 22:59:20.381,45,1430596760.177639,51.73562618442973,39.26775489006123,96.71521,0,-1,12,10,-9999,1430596760.331099,-17.20223617553711,5.789833068847656,-46.27986907958984,70.98011016845703,61.55668640136719,10,168646.4611191667,0.0345458984375,-0.0587921142578125,-1.09466552734375,168646.4470571667,-0.03032621428105931,0.09183857755916451,0.2039110541324241,168646.4470571667,-0.1069121267495798,0.07164402765733942,0.09176348020642586,0.05465461313724518,0.003460817039012909,0.2146154046058655,-0.01732650399208069,0.05774497985839844,-0.2187369614839554,XArbitraryZVertical,0.04768231407234443,0.03327650097792829,-0.05169983494443142,0.9969685042538086,0.07128158211708069,-0.09163475036621094,-0.9932381510734558,0,0,0,-1
2015-05-02 22:59:20.478,46,1430596760.177639,51.73562618442973,39.26775489006123,96.71521,0,-1,12,10,-9999,1430596760.450289,-16.38093376159668,7.569313049316406,-46.01361846923828,69.18892669677734,59.76549911499023,10,168646.5584761667,0.10479736328125,-0.182769775390625,-0.806732177734375,168646.5446131667,-0.1256279665217629,0.0778465955079972,-0.02439428926901682,168646.5446131667,-0.1003414436691017,0.08970440999680285,0.1009247248433384,-0.04071922227740288,-0.01050067413598299,-0.01370196137577295,-0.01094226073473692,-0.04739410430192947,0.2148338705301285,XArbitraryZVertical,0.05257252229656054,0.0421966929959852,-0.04777668432756423,0.9965806326806823,0.0891282930970192,-0.100753478705883,-0.9909111261367798,0,0,0,-1
2015-05-02 22:59:20.576,47,1430596760.177639,51.73562618442973,39.26775489006123,96.71521,0,-1,12,10,-9999,1430596760.568993,-16.41515922546387,8.356391906738281,-46.57942199707031,65.87567901611328,56.45225143432617,10,168646.6557971667,0.1316375732421875,-0.0973052978515625,-1.2783203125,168646.6421481667,-0.2048311762890464,0.0649505042453975,-0.3203545770028307,168646.6421481667,-0.1147604731077636,0.08062424403711745,0.09279710342170916,-0.1198055744171143,-0.02338383719325066,-0.3097179234027863,0.07370973378419876,-0.03413655981421471,-0.2118368893861771,XArbitraryZVertical,0.04857668719969623,0.03753379202785523,-0.0553743229492565,0.9965767427923495,0.08019041270017624,-0.09266397356987,-0.9924630522727966,0,0,0,-1
2015-05-02 22:59:20.687,48,1430596760.177639,51.73562618442973,39.26775489006123,96.71521,0,-1,12,10,-9999,1430596760.568993,-16.41515922546387,8.356391906738281,-46.57942199707031,65.87567901611328,56.45225143432617,10,168646.7531481667,0.1014556884765625,0.0291290283203125,-1.299072265625,168646.7396691667,0.1546196707805835,-0.2471677144541451,-0.3850190577471536,168646.7396691667,-0.1501448956137468,0.07925605550670117,0.08924198793886481,0.2396435886621475,-0.3355003297328949,-0.3743826150894165,0.005523059982806444,-0.001818803604692221,-0.2391006797552109,XArbitraryZVertical,0.0474140729361491,0.03612382207191574,-0.07310625827019918,0.9955412850144579,0.07885804027318954,-0.08912357687950134,-0.9928939342498779,0,0,0,-1
2015-05-02 22:59:20.770,49,1430596760.177639,51.73562618442973,39.26775489006123,96.71521,0,-1,12,10,-9999,1430596760.688755,-17.13379287719727,7.363983154296875,-46.67927551269531,68.8955078125,59.47208404541016,10,168646.8504981667,-0.0135498046875,0.0226898193359375,-0.7232208251953125,168646.8372051667,0.1792879993257694,0.2342151641764357,-0.4236777704468529,168646.8372051667,-0.1994803171278854,0.0660089391444826,0.1649408873644964,0.2643102705478668,0.1458842605352402,-0.4130415320396423,-0.09883349388837814,0.2545107901096344,0.2499963790178299,XArbitraryZVertical,0.08519759446897827,0.02452467049889823,-0.09647758944509564,0.9913788303007427,0.06506579369306564,-0.1641940176486969,-0.9842798113822937,0,0,0,-1
2015-05-02 22:59:20.868,50,1430596760.177639,51.73562618442973,39.26775489006123,96.71521,0,-1,12,10,-9999,1430596760.806895,-17.61288642883301,2.299293518066406,-46.61269378662109,72.39390563964844,62.97048187255859,10,168646.9478211667,0.1148834228515625,-0.0778045654296875,-0.8834991455078125,168646.9347511667,-0.370679000541513,-0.1223482836393303,-0.4660736971042603,168646.9347511667,-0.2370345805723248,0.06094362027118887,0.1463619317727042,-0.2856583893299103,-0.2106774598360062,-0.4554376602172852,0.01137004792690277,0.1209223344922066,0.1173543706536293,XArbitraryZVertical,0.07616184437511618,0.02153121033864273,-0.1156568172053863,0.9901309413792894,0.06025470793247223,-0.1458399295806885,-0.9874715805053711,0,0,0,-1
2015-05-02 22:59:20.965,51,1430596760.177639,51.73562618442973,39.26775489006123,96.71521,0,-1,12,10,-9999,1430596760.926805,-17.33911895751953,2.709945678710938,-46.67926788330078,74.33072662353516,64.90730285644531,10,168647.0451711667,0.075408935546875,-0.1627655029296875,-0.9693756103515625,168647.0322791667,-0.1601997922126265,0.03686747055051193,-0.0106574380502791,168647.0322791667,-0.2586545088107496,0.06111523840332114,0.1225142156193774,-0.07518083602190018,-0.05145997926592827,-2.160742224077694e-05,0.03003306873142719,-0.03460661321878433,0.03963226824998856,XArbitraryZVertical,0.06461213967737765,0.02234936345836937,-0.1268102651600378,0.9895680542586963,0.06061939895153046,-0.1222079619765282,-0.990651547908783,0,0,0,-1
2015-05-02 22:59:21.062,52,1430596760.177639,51.73562618442973,39.26775489006123,96.71521,0,-1,12,10,-9999,1430596761.04484,-17.40756034851074,3.941902160644531,-47.07866668701172,72.83245086669922,63.40902328491211,10,168647.1424921667,0.0748138427734375,-0.156768798828125,-1.161117553710938,168647.1298201667,-0.1501876380944736,0.1027934907032055,0.4010406348650704,168647.1298201667,-0.2321341627648681,0.06844963714128524,0.1300708291036773,-0.06513330340385437,0.0144645981490612,0.411681056022644,0.008643357083201408,-0.07538901269435883,-0.1229213699698448,XArbitraryZVertical,0.06846882215301424,0.02639423944573475,-0.1132852996930018,0.9908490325930135,0.06781843304634094,-0.1297043710947037,-0.989230751991272,0,0,0,-1
2015-05-02 22:59:21.167,53,1430596761.156524,51.73569902316829,39.26771809350631,100.8037,0,-1,8,5,-9999,1430596761.04484,-17.40756034851074,3.941902160644531,-47.07866668701172,72.83245086669922,63.40902328491211,10,168647.2398421667,0.12982177734375,0.073577880859375,-1.336090087890625,168647.2273431667,-0.3998672460887814,0.1673980503230017,0.5213982055895664,168647.2273431667,-0.1833633733977443,0.05966367319624459,0.1055110378570602,-0.314814567565918,0.07907088100910187,0.5320383906364441,0.02484028227627277,-0.001419850974343717,-0.2298952788114548,XArbitraryZVertical,0.05521322563638374,0.0248352652719667,-0.08981902438730212,0.9941163172243952,0.05929668247699738,-0.1053153797984123,-0.992669403553009,0,0,0,-1
2015-05-02 22:59:21.257,54,1430596761.156524,51.73569902316829,39.26771809350631,100.8037,0,-1,8,5,-9999,1430596761.163792,-17.54444122314453,4.557884216308594,-47.21179962158203,71.96214294433594,62.53871917724609,10,168647.3371621667,0.1192169189453125,0.021148681640625,-0.539794921875,168647.3248701667,0.05348905786202349,0.02252075544214607,0.3247413359504092,168647.3248701667,-0.1362299450654136,0.06073526875295863,0.1781493108692526,0.1385400742292404,-0.06580469757318497,0.3353813290596008,0.04890528693795204,0.2156301140785217,0.3780953884124756,XArbitraryZVertical,0.09076808805792737,0.0241206403789678,-0.06506648958307773,0.9934514083896284,0.05973729118704796,-0.1772084832191467,-0.9823586940765381,0,0,0,-1
2015-05-02 22:59:21.355,55,1430596761.156524,51.73569902316829,39.26771809350631,100.8037,0,-1,8,5,-9999,1430596761.2807,-16.10717010498047,1.95709228515625,-46.87896728515625,69.21412658691406,59.79070281982422,10,168647.4345031667,0.1239013671875,-0.0118408203125,-1.167495727539062,168647.4224211667,-0.5693039462262387,0.1313295280995135,0.193589440695604,168647.4224211667,-0.1205141534125171,0.08229508207726949,0.1134648089557127,-0.4842545688152313,0.04300579428672791,0.2042292207479477,0.04465387016534805,0.1394360959529877,-0.1106991693377495,XArbitraryZVertical,0.05902440560135055,0.03758347348239442,-0.05774458608664051,0.9958760790590724,0.08167364448308945,-0.1132215037941933,-0.9902071952819824,0,0,0,-1
2015-05-02 22:59:21.452,56,1430596761.156524,51.73569902316829,39.26771809350631,100.8037,0,-1,8,5,-9999,1430596761.399701,-15.52541351318359,5.071182250976562,-47.51134490966797,69.294677734375,59.87125015258789,10,168647.5318301667,0.1103057861328125,-0.137664794921875,-0.9049224853515625,168647.5199551667,-0.2435197163929546,0.151210558269173,0.09196134928541716,168647.5199551667,-0.09706485424926141,0.07829378165816764,0.09399181444363112,-0.1585583686828613,0.06290916353464127,0.1025878936052322,0.01878058724105358,-0.03979825228452682,0.1443305760622025,XArbitraryZVertical,0.04878391068817053,0.03677030531213996,-0.04658625433003114,0.9970445304060906,0.07786858081817627,-0.09385348111391068,-0.9925361275672913,0,0,0,-1
2015-05-02 22:59:21.551,57,1430596761.156524,51.73569902316829,39.26771809350631,100.8037,0,-1,8,5,-9999,1430596761.518679,-14.87521553039551,4.626312255859375,-46.94552612304688,69.10662841796875,59.68320465087891,10,168647.6291591667,0.0890960693359375,-0.0798797607421875,-1.099868774414062,168647.6174891667,0.1853437613285006,-0.19846542233543,-0.1671485121288613,168647.6174891667,-0.1046684593004298,0.06811469145460597,0.109396836705735,0.2703732550144196,-0.2867581248283386,-0.1565817296504974,0.0253166351467371,0.009035330265760422,-0.1004460006952286,XArbitraryZVertical,0.05634317835570915,0.03109507839660083,-0.05034277424269409,0.9966564841678496,0.06765516847372055,-0.1091787666082382,-0.9917171001434326,0,0,0,-1
2015-05-02 22:59:21.646,58,1430596761.156524,51.73569902316829,39.26771809350631,100.8037,0,-1,8,5,-9999,1430596761.638094,-15.86761856079102,2.812599182128906,-47.04537200927734,71.32727813720703,61.90385437011719,10,168647.7264951667,-0.0231781005859375,-0.06292724609375,-1.14080810546875,168647.7150241667,-0.002891660311608037,-0.289849398296518,-0.451979715983343,168647.7150241667,-0.1306718346239258,0.05806533605213998,0.1235097150330706,0.08211389929056168,-0.3781391084194183,-0.4414163827896118,-0.05311981588602066,-0.006473251152783632,-0.09811152517795563,XArbitraryZVertical,0.06344962963019726,0.02488375637308799,-0.06334983023105814,0.9956614596228158,0.05759064108133316,-0.1231959387660027,-0.9907099008560181,0,0,0,-1
2015-05-02 22:59:21.744,59,1430596761.156524,51.73569902316829,39.26771809350631,100.8037,0,-1,8,5,-9999,1430596761.638094,-15.86761856079102,2.812599182128906,-47.04537200927734,71.32727813720703,61.90385437011719,10,168647.823935375,-0.11090087890625,0.085052490234375,-0.8831939697265625,168647.812666375,0.2907372962039504,0.2471504039070596,-0.6923105632870367,168647.812666375,-0.1959657557175203,0.05047449509154543,0.1649682654819294,0.3757412135601044,0.158862441778183,-0.6817474365234375,-0.1792083978652954,0.2765562236309052,0.02072026953101158,XArbitraryZVertical,0.08442954474687581,0.01697075485700613,-0.09539340614224141,0.9917074888887272,0.04976809397339821,-0.1642210334539413,-0.9851672649383545,0,0,0,-1
2015-05-02 22:59:21.842,60,1430596761.156524,51.73569902316829,39.26771809350631,100.8037,0,-1,8,5,-9999,1430596761.756735,-16.58626174926758,-0.4383773803710938,-46.34642791748047,75.19399261474609,65.77056884765625,10,168647.921287375,0.1248779296875,-0.1083984375,-0.847320556640625,168647.910200375,-0.2579359400057715,0.003258643909820956,-0.3992049179256787,168647.910200375,-0.2442350523670241,0.0613939511096973,0.1644457842272893,-0.1729336977005005,-0.08502760529518127,-0.3886419534683228,0.06006255000829697,0.1131532490253448,0.1526499092578888,XArbitraryZVertical,0.08520635207143148,0.02036074601457808,-0.1188435210743419,0.98904071457501,0.06052765995264053,-0.1637056171894073,-0.9846506118774414,0,0,0,-1
2015-05-02 22:59:21.939,61,1430596761.156524,51.73569902316829,39.26771809350631,100.8037,0,-1,8,5,-9999,1430596761.87611,-16.38093757629395,-2.286304473876953,-46.34640502929688,81.86571502685547,72.44229125976562,10,168648.018613375,0.00592041015625,-0.166046142578125,-1.000823974609375,168648.007734375,-0.1572290360166431,0.1508190735889314,-0.1868484473443954,168648.007734375,-0.272642008919681,0.06670829762776388,0.1399901235138959,-0.07222844660282135,0.06253454834222794,-0.1762857139110565,-0.04423244297504425,0.001578622846864164,-0.004065729212015867,XArbitraryZVertical,0.07377140951782575,0.02345846504252514,-0.1331803564461113,0.9880640020831001,0.06600673496723175,-0.1395333409309387,-0.9880149364471436,0,0,0,-1
2015-05-02 22:59:22.045,62,1430596761.156524,51.73569902316829,39.26771809350631,100.8037,0,-1,8,5,-9999,1430596761.994449,-15.93606185913086,-1.6361083984375,-46.77909851074219,82.89840698242188,73.47498321533203,10,168648.115928375,0.0657196044921875,-0.16619873046875,-1.176727294921875,168648.105268375,-0.09521040581531384,0.220479644538243,0.2196018666429529,168648.007734375,-0.272642008919681,0.06670829762776388,0.1399901235138959,-0.07222844660282135,0.06253454834222794,-0.1762857139110565,-0.04423244297504425,0.001578622846864164,-0.004065729212015867,XArbitraryZVertical,0.07377140951782575,0.02345846504252514,-0.1331803564461113,0.9880640020831001,0.06600673496723175,-0.1395333409309387,-0.9880149364471436,0,0,0,-1
2015-05-02 22:59:22.134,63,1430596761.156524,51.73569902316829,39.26771809350631,100.8037,0,-1,8,5,-9999,1430596762.114543,-15.76495742797852,-1.465003967285156,-46.27984619140625,81.56087493896484,72.137451171875,10,168648.213274375,0.0768585205078125,-0.1328887939453125,-1.049392700195312,168648.202802375,-0.1829903258731976,0.006553240494357982,0.4580674359191551,168648.202802375,-0.2243321346464386,0.07495411436209372,0.1463092398290215,-0.09799674898386002,-0.08172827959060669,0.468629390001297,0.001508159330114722,-0.002664952771738172,-0.04048518091440201,XArbitraryZVertical,0.07676173982864003,0.02895802514517222,-0.1088319352340749,0.990668803360317,0.07408387959003448,-0.1457878053188324,-0.9865381121635437,0,0,0,-1
2015-05-02 22:59:22.231,64,1430596762.165247,51.73569902316829,39.26771809350631,100.9918,0,-1,6,5,-9999,1430596762.114543,-15.76495742797852,-1.465003967285156,-46.27984619140625,81.56087493896484,72.137451171875,10,168648.310628375,0.11370849609375,0.0230865478515625,-0.8749542236328125,168648.300337375,0.6848489185448526,0.1508566241603015,0.469828754241272,168648.202802375,-0.2243321346464386,0.07495411436209372,0.1463092398290215,-0.09799674898386002,-0.08172827959060669,0.468629390001297,0.001508159330114722,-0.002664952771738172,-0.04048518091440201,XArbitraryZVertical,0.07676173982864003,0.02895802514517222,-0.1088319352340749,0.990668803360317,0.07408387959003448,-0.1457878053188324,-0.9865381121635437,0,0,0,-1
2015-05-02 22:59:22.328,65,1430596762.165247,51.73569902316829,39.26771809350631,100.9918,0,-1,6,5,-9999,1430596762.232457,-16.86002922058105,-1.191246032714844,-46.21327972412109,78.75994110107422,69.33651733398438,10,168648.407980375,0.11260986328125,0.0579681396484375,-1.063629150390625,168648.397871375,-0.5996147141729756,0.1695693255597433,0.1060915493971596,168648.300337375,-0.1775356303085903,0.06243354890347742,0.1784263205487853,0.7698360085487366,0.06257626414299011,0.4803899824619293,0.03187451884150505,0.293295294046402,-0.02566673420369625,XArbitraryZVertical,0.09145679261462424,0.02307065370045535,-0.08548585673569842,0.9918646925466336,0.06140245869755745,-0.1774810999631882,-0.9822068214416504,0,0,0,-1
2015-05-02 22:59:22.425,66,1430596762.165247,51.73569902316829,39.26771809350631,100.9918,0,-1,6,5,-9999,1430596762.350239,-16.68892288208008,-2.115200042724609,-45.98029327392578,80.45918273925781,71.03575897216797,10,168648.505301375,0.015869140625,-0.1823577880859375,-0.7688751220703125,168648.495405375,-0.1275670141114496,0.2585692397129923,0.06659021252855929,168648.397871375,-0.1550626832286775,0.05834038185372224,0.1705444839425634,-0.5146292448043823,0.08129068464040756,0.1166525632143021,0.06302199512720108,0.1594040244817734,0.04819269850850105,XArbitraryZVertical,0.08712777378742337,0.02237894000029879,-0.07466285369000236,0.9931431882453613,0.05746139958500862,-0.1697189658880234,-0.9838158488273621,0,0,0,-1
2015-05-02 22:59:22.525,67,1430596762.165247,51.73569902316829,39.26771809350631,100.9918,0,-1,6,5,-9999,1430596762.469438,-16.17561149597168,-1.465003967285156,-45.61419677734375,80.82107543945312,71.39765167236328,10,168648.602651375,0.1264801025390625,-0.1289825439453125,-1.088119506835938,168648.592939375,-0.1008520462685377,-0.109937686643452,-0.07021530740437515,168648.495405375,-0.1413791546780498,0.0607683482683179,0.1490680822402498,-0.04269654303789139,0.170290008187294,0.07713747024536133,-0.05326728150248528,-0.01337913796305656,0.1757747381925583,XArbitraryZVertical,0.07638456012515391,0.02496240071254553,-0.0681455505979722,0.994433739099211,0.06005744263529778,-0.1485166102647781,-0.9870845675468445,0,0,0,-1
2015-05-02 22:59:22.620,68,1430596762.165247,51.73569902316829,39.26771809350631,100.9918,0,-1,6,5,-9999,1430596762.588402,-16.68892288208008,-1.978309631347656,-44.71553802490234,81.35050201416016,71.92707824707031,10,168648.699972375,0.045562744140625,-0.1715850830078125,-1.036087036132812,168648.690473375,-0.3284686962120841,0.1274112191876799,-0.2296284018309922,168648.592939375,-0.1406109418537199,0.0658911756200725,0.1347377431900527,-0.01589160226285458,-0.1982157081365585,-0.05973381921648979,0.06124862283468246,0.006553336046636105,-0.07763528823852539,XArbitraryZVertical,0.06942385998158088,0.02805736315195636,-0.06783823235204704,0.9948824484679343,0.06524673849344254,-0.1343304365873337,-0.9887862205505371,0,0,0,-1
2015-05-02 22:59:22.717,69,1430596762.165247,51.73569902316829,39.26771809350631,100.9918,0,-1,6,5,-9999,1430596762.70688,-17.13379096984863,-0.5067977905273438,-44.8819580078125,83.598876953125,74.17545318603516,10,168648.797315375,0.0911407470703125,0.0774383544921875,-1.281570434570312,168648.788008375,0.005653890994238223,-0.2678468940025014,-0.308604710273401,168648.690473375,-0.155944719309146,0.05225926073333071,0.1340904928188477,-0.2434946745634079,0.03913472965359688,-0.2191450595855713,-0.01725119538605213,-0.0383538231253624,-0.04696597158908844,XArbitraryZVertical,0.06879919899486645,0.0207720685976812,-0.07594680546563509,0.9945186142669166,0.05176657810807228,-0.1336890310049057,-0.9896703958511353,0,0,0,-1
2015-05-02 22:59:22.814,70,1430596762.165247,51.73569902316829,39.26771809350631,100.9918,0,-1,6,5,-9999,1430596762.70688,-17.13379096984863,-0.5067977905273438,-44.8819580078125,83.598876953125,74.17545318603516,10,168648.894614375,-0.0439300537109375,0.008819580078125,-0.7155609130859375,168648.885542375,-0.3944005753191758,0.3904881253617404,-0.3742803932836271,168648.788008375,-0.1737471759491316,0.04951471761050505,0.1051426943713849,0.09063252061605453,-0.3561142683029175,-0.2981214225292206,0.05726993083953857,0.06085117533802986,-0.2542998194694519,XArbitraryZVertical,0.05447779971027132,0.02006958357684328,-0.08532204476791536,0.9946605098375957,0.04922115802764893,-0.1049490794539452,-0.9932587742805481,0,0,0,-1
2015-05-02 22:59:22.927,71,1430596762.165247,51.73569902316829,39.26771809350631,100.9918,0,-1,6,5,-9999,1430596762.825907,-17.20223617553711,-3.176040649414062,-44.4825439453125,84.70748138427734,75.2840576171875,10,168648.991965375,0.12652587890625,-0.1002349853515625,-1.00830078125,168648.983076375,0.2465756937438205,0.108189055071706,0.1961010679196577,168648.885542375,-0.2131035351508327,0.0508724361111202,0.1608111804101854,-0.3094235956668854,0.3022224605083466,-0.3637973070144653,-0.1220785602927208,0.1754540503025055,0.3048667013645172,XArbitraryZVertical,0.08253375318176516,0.01666834943304443,-0.1039411711963001,0.9910129053868246,0.05019440874457359,-0.160118967294693,-0.9858207106590271,0,0,0,-1
2015-05-02 22:59:23.009,72,1430596762.165247,51.73569902316829,39.26771809350631,100.9918,0,-1,6,5,-9999,1430596762.944489,-16.34671211242676,-2.731166839599609,-45.04837036132812,86.64791870117188,77.22449493408203,10,168649.089284375,0.03839111328125,-0.120513916015625,-0.9810028076171875,168649.080610375,-0.07917684447249178,0.1868955852956898,0.2523480954065672,168648.983076375,-0.2219450778675398,0.07615505418636834,0.1337320221220219,0.3315510153770447,0.01992510631680489,0.2065839469432831,0.0509711429476738,0.07487734407186508,-0.1093965396285057,XArbitraryZVertical,0.07056351727087888,0.03035542507792634,-0.107889398105877,0.9911908070472795,0.0754021480679512,-0.133333757519722,-0.9881986975669861,0,0,0,-1
2015-05-02 22:59:23.106,73,1430596762.165247,51.73569902316829,39.26771809350631,100.9918,0,-1,6,5,-9999,1430596763.045229,-15.08053970336914,-2.902278900146484,-44.41598510742188,85.73197174072266,76.30854797363281,10,168649.186605375,0.0915069580078125,-0.163177490234375,-1.006851196289062,168649.178144375,0.03735189955279735,0.3109956963000742,0.7218546071559396,168649.080610375,-0.1935877576852748,0.06661644568915641,0.1298226932589018,0.005710388999432325,0.09860741347074509,0.2628225386142731,-0.02480828389525414,-0.0001345655327895656,0.04973398521542549,XArbitraryZVertical,0.06773796051363162,0.02681104259818629,-0.09423573076517799,0.9928808406588322,0.06600701063871384,-0.1294583231210709,-0.9893854856491089,0,0,0,-1
