loggingTime,loggingSample,locationTimestamp_since1970,locationLatitude,locationLongitude,locationAltitude,locationSpeed,locationCourse,locationVerticalAccuracy,locationHorizontalAccuracy,locationFloor,locationHeadingTimestamp_since1970,locationHeadingX,locationHeadingY,locationHeadingZ,locationTrueHeading,locationMagneticHeading,locationHeadingAccuracy,accelerometerTimestamp_sinceReboot,accelerometerAccelerationX,accelerometerAccelerationY,accelerometerAccelerationZ,gyroTimestamp_sinceReboot,gyroRotationX,gyroRotationY,gyroRotationZ,motionTimestamp_sinceReboot,motionYaw,motionRoll,motionPitch,motionRotationRateX,motionRotationRateY,motionRotationRateZ,motionUserAccelerationX,motionUserAccelerationY,motionUserAccelerationZ,motionAttitudeReferenceFrame,motionQuaternionX,motionQuaternionY,motionQuaternionZ,motionQuaternionW,motionGravityX,motionGravityY,motionGravityZ,motionMagneticFieldX,motionMagneticFieldY,motionMagneticFieldZ,motionMagneticFieldCalibrationAccuracy
2015-05-02 22:49:50.465,1,1430596190.143085,51.73560301754787,39.26783821095923,97.49386,0.001325054,-1,10,200,-9999,1430596190.420067,-22.54068756103516,-0.5067291259765625,-40.62181091308594,85.64286041259766,76.21943664550781,10,168391.21707025,0.05517578125,-0.1570587158203125,-0.99853515625,168391.15422625,-0.1437790072473069,0.1763995348074695,-0.06398830414355187,168391.15422625,-0.09429329585895713,0.05390427367472025,0.1644522847482826,-0.05820484086871147,0.08942053467035294,-0.05607853829860687,-0.0009967166697606444,-0.002044195542111993,0.005003262311220169,XArbitraryZVertical,0.08327824067752224,0.02295849858654906,-0.04474194471925269,0.9952566504952607,0.05315125733613968,-0.1637120246887207,-0.9850752949714661,0,0,0,-1
2015-05-02 22:49:50.560,2,1430596190.143085,51.73560301754787,39.26783821095923,97.49386,0.001325054,-1,10,200,-9999,1430596190.539244,-22.13003349304199,0.1092453002929688,-40.55524444580078,85.83232116699219,76.40889739990234,10,168391.31442025,0.06201171875,-0.1513214111328125,-1.01025390625,168391.25176125,-0.1488371491056944,0.1089858728698577,-0.06575504521071043,168391.25176125,-0.1012076374673937,0.05884186217295666,0.1542045395860365,-0.06319552659988403,0.0219840407371521,-0.05778750404715538,0.009532112628221512,0.002913584467023611,-0.01729927025735378,XArbitraryZVertical,0.078377548684335,0.02539729292218731,-0.04814717769373626,0.9954364804720511,0.05811009928584099,-0.153594121336937,-0.9864238500595093,0,0,0,-1
2015-05-02 22:49:50.657,3,1430596190.143085,51.73560301754787,39.26783821095923,97.49386,0.001325054,-1,10,200,-9999,1430596190.539244,-22.13003349304199,0.1092453002929688,-40.55524444580078,85.83232116699219,76.40889739990234,10,168391.41177325,0.0607452392578125,-0.1552734375,-0.9907684326171875,168391.34929525,-0.09162898678137528,0.07190534943213943,-0.02998373176487512,168391.34929525,-0.1040342561894121,0.0603659867669579,0.1533813823237736,-0.005900641437619925,-0.0150503721088171,-0.02188014797866344,0.007426047697663307,4.020631240564398e-05,-0.003713310230523348,XArbitraryZVertical,0.07804153401664941,0.0260672998653684,-0.04950822909299771,0.9953787972918303,0.05962107330560684,-0.152780681848526,-0.9864600300788879,0,0,0,-1
2015-05-02 22:49:50.763,4,1430596190.143085,51.73560301754787,39.26783821095923,97.49386,0.001325054,-1,10,200,-9999,1430596190.658592,-22.50646591186523,1.033203125,-40.78823089599609,85.04623413085938,75.62281036376953,10,168391.50909325,0.049346923828125,-0.1539764404296875,-1.009490966796875,168391.44685325,-0.09790712273512807,-0.01226172629094283,0.01297944820471918,168391.44685325,-0.1045476645336752,0.05338133794469545,0.1483962590478769,-0.01217711437493563,-0.09921030700206757,0.0210821870714426,-0.006413377355784178,-0.000463221367681399,-0.008905060589313507,XArbitraryZVertical,0.07539302667877104,0.02270579910256209,-0.05011206422849508,0.9956350331492387,0.05276957899332047,-0.1478522121906281,-0.9876006841659546,0,0,0,-1
2015-05-02 22:49:50.852,5,1430596190.143085,51.73560301754787,39.26783821095923,97.49386,0.001325054,-1,10,200,-9999,1430596190.775622,-22.1984748840332,-0.0960693359375,-40.28896331787109,85.81484985351562,76.39142608642578,10,168391.60647425,0.0038909912109375,-0.1881103515625,-0.982391357421875,168391.54438925,-0.01541517533770565,-0.03845711140518023,0.04314826966535481,168391.54438925,-0.1006133431597615,0.04381464241566577,0.1578965379977021,0.07045455276966095,-0.1253266185522079,0.05151205137372017,0.01832871697843075,-0.009827220812439919,0.0004063948872499168,XArbitraryZVertical,0.07984570786949684,0.01784483551128151,-0.0483913724207143,0.9954719985291564,0.0432557538151741,-0.1572412550449371,-0.9866124391555786,0,0,0,-1
2015-05-02 22:49:50.949,6,1430596190.143085,51.73560301754787,39.26783821095923,97.49386,0.001325054,-1,10,200,-9999,1430596190.895135,-22.60912895202637,-0.3014068603515625,-39.55673217773438,86.10552978515625,76.68210601806641,10,168391.70379425,0.0753326416015625,-0.15570068359375,-0.972625732421875,168391.64192825,-0.1399768121590008,0.1631788042079891,-0.0603863787692197,168391.64192825,-0.1059481736203697,0.04616499394581765,0.1580932714248026,-0.05410711094737053,0.07628838717937469,-0.05201923102140427,-0.01287350617349148,0.009760983288288116,-0.002307652495801449,XArbitraryZVertical,0.08005084362159293,0.01879610715544737,-0.05094993970623151,0.9953103397610226,0.04557308927178383,-0.1574355363845825,-0.9864771366119385,0,0,0,-1
2015-05-02 22:49:51.047,7,1430596190.143085,51.73560301754787,39.26783821095923,97.49386,0.001325054,-1,10,200,-9999,1430596191.014262,-23.05399894714355,0.8963241577148438,-39.45687103271484,84.86741638183594,75.44399261474609,10,168391.80114525,0.0383758544921875,-0.14874267578125,-1.014358520507812,168391.73947425,-0.2224333395139252,-0.0860944054039726,-0.02944896901798721,168391.73947425,-0.1054822222993139,0.03867382978020091,0.1463373389355379,-0.1363836824893951,-0.172935426235199,-0.02081313543021679,-0.03428365290164948,-0.001477485988289118,-0.01269444078207016,XArbitraryZVertical,0.07400468971988812,0.01540411352040431,-0.05115424330062159,0.9958259198165377,0.03825093805789948,-0.1458156108856201,-0.9885720610618591,0,0,0,-1
2015-05-02 22:49:51.144,8,1430596190.143085,51.73560301754787,39.26783821095923,97.49386,0.001325054,-1,10,200,-9999,1430596191.13332,-23.90951347351074,0.7252197265625,-38.82448577880859,86.45223236083984,77.02880859375,10,168391.89849625,0.0050201416015625,-0.1452789306640625,-1.011428833007812,168391.83699325,-0.185490767820673,-0.07381137382430915,0.03910532481450552,168391.83699325,-0.1035026894119092,0.02736600675661028,0.1360317233935139,-0.09944326430559158,-0.1606500595808029,0.0477408729493618,0.001378345186822116,-0.02465048618614674,-0.01517848111689091,XArbitraryZVertical,0.06857222782967914,0.01011736369896118,-0.05067514131515027,0.9963069399411737,0.02710981480777264,-0.1356125771999359,-0.990390956401825,0,0,0,-1
2015-05-02 22:49:51.245,9,1430596191.155158,51.73556679864576,39.2678584065654,96.72351,0,9.84375,24,50,-9999,1430596191.234768,-24.66237258911133,1.272758483886719,-39.95612335205078,85.74385070800781,76.32042694091797,10,168391.99584725,0.0308685302734375,-0.1292266845703125,-1.01324462890625,168391.93456325,-0.1811319720645403,-0.05254123883006429,-0.1437840672533781,168391.93456325,-0.1086855703261637,0.0129098326026217,0.1291075794809837,-0.09484294801950455,-0.1394082903862,-0.1347110271453857,-0.002136137336492538,-0.02231281064450741,0.01402497012168169,XArbitraryZVertical,0.0647622667878779,0.002928119296575166,-0.0537859971754622,0.9964458547385905,0.01280203089118004,-0.128749206662178,-0.9915945529937744,0,0,0,-1
2015-05-02 22:49:51.339,10,1430596191.155158,51.73556679864576,39.2678584065654,96.72351,0,9.84375,24,50,-9999,1430596191.234768,-24.66237258911133,1.272758483886719,-39.95612335205078,85.74385070800781,76.32042694091797,10,168392.09316825,0.0260162353515625,-0.1443328857421875,-1.00811767578125,168392.03209725,-0.1007902609312479,0.01663144100754484,0.02041605923265645,168392.03209725,-0.1187471749003999,0.01067993570053911,0.1277798144381734,-0.01449710689485073,-0.07022064924240112,0.0294868815690279,0.05704955011606216,0.001440552296116948,-0.003540114033967257,XArbitraryZVertical,0.06404925718897568,0.001531145330278872,-0.05887646274902233,0.9962072627629647,0.01059266366064548,-0.1274323761463165,-0.9917907118797302,0,0,0,-1
2015-05-02 22:49:51.436,11,1430596191.155158,51.73556679864576,39.2678584065654,96.72351,0,9.84375,24,50,-9999,1430596191.351799,-23.56730842590332,0.1776962280273438,-39.55672454833984,87.23040008544922,77.80697631835938,10,168392.19052025,0.0199127197265625,-0.1299285888671875,-0.998138427734375,168392.12964425,-0.09032137468614637,0.1537165928549376,-0.04393603271580025,168392.12964425,-0.1243330592402699,0.02499779725672362,0.1391287080360764,-0.004032428842037916,0.06686878204345703,-0.03486591577529907,0.01845921948552132,0.008446529507637024,0.03493440896272659,XArbitraryZVertical,0.07014318706122133,0.008126291169536171,-0.06110431756943004,0.9956305334184431,0.02475367113947868,-0.1386802941560745,-0.9900277853012085,0,0,0,-1
2015-05-02 22:49:51.533,12,1430596191.155158,51.73556679864576,39.2678584065654,96.72351,0,9.84375,24,50,-9999,1430596191.471106,-23.87530136108398,0.7594451904296875,-40.65505981445312,86.15813446044922,76.73471069335938,10,168392.28787025,0.0386199951171875,-0.129547119140625,-0.99554443359375,168392.22716325,-0.1420839052134715,0.142707883856877,-0.06298855347033612,168392.22716325,-0.1290768290466139,0.03476333709322746,0.1336413790616465,-0.05579935386776924,0.05585714802145958,-0.05391798540949821,-0.007285778410732746,0.002918610582128167,-0.02504896931350231,XArbitraryZVertical,0.06774034910330341,0.01300024965609639,-0.06318185569923786,0.9956155340906644,0.03444642201066017,-0.1332439333200455,-0.9904844760894775,0,0,0,-1
2015-05-02 22:49:51.646,13,1430596191.155158,51.73556679864576,39.2678584065654,96.72351,0,9.84375,24,50,-9999,1430596191.588638,-23.01977729797363,1.546524047851562,-40.28897094726562,85.440673828125,76.01725006103516,10,168392.38522225,0.0497589111328125,-0.1342620849609375,-1.018280029296875,168392.32472825,-0.1240417877765117,0.1679277530638184,-0.1086159597944457,168392.32472825,-0.1366039692667197,0.04078238898071293,0.1289169434568248,-0.03776142001152039,0.08107819408178329,-0.09954556822776794,-0.001446548849344254,-0.003748810850083828,-0.0104503883048892,XArbitraryZVertical,0.06563898260949715,0.01590473429919217,-0.06678267516171817,0.9954790995732167,0.04043275490403175,-0.1285601556301117,-0.9908771514892578,0,0,0,-1
2015-05-02 22:49:51.728,14,1430596191.155158,51.73556679864576,39.2678584065654,96.72351,0,9.84375,24,50,-9999,1430596191.707112,-22.71178817749023,-0.1987228393554688,-39.85630798339844,85.62429046630859,76.20086669921875,10,168392.48253725,0.0322723388671875,-0.135833740234375,-0.99114990234375,168392.42226225,0.08221284811518212,0.01460051436025041,-0.02532719459887157,168392.42226225,-0.1410129111905237,0.0420780868783356,0.1383469920331496,0.1689208745956421,-0.07229229062795639,-0.01558721996843815,0.004036326892673969,0.006619468796998262,-0.02413377724587917,XArbitraryZVertical,0.07040986284147244,0.01606686064065643,-0.06881355724741298,0.9950120610036601,0.04166374728083611,-0.137906089425087,-0.9895685911178589,0,0,0,-1
2015-05-02 22:49:51.825,15,1430596191.155158,51.73556679864576,39.2678584065654,96.72351,0,9.84375,24,50,-9999,1430596191.707112,-22.71178817749023,-0.1987228393554688,-39.85630798339844,85.62429046630859,76.20086669921875,10,168392.57989325,0.046142578125,-0.1374053955078125,-0.972320556640625,168392.51979625,-0.0183339998924325,0.05746622263394782,-0.1150703970123617,168392.51979625,-0.1485271405814519,0.03987164226128504,0.145151301299122,0.0683598667383194,-0.02943477779626846,-0.1053297221660614,-0.001844244776293635,0.00241496879607439,-0.00460376963019371,XArbitraryZVertical,0.0737728767216726,0.01444824444401274,-0.07254380141860976,0.9945281332211913,0.03944190219044685,-0.1446421444416046,-0.9886976480484009,0,0,0,-1
2015-05-02 22:49:51.923,16,1430596191.155158,51.73556679864576,39.2678584065654,96.72351,0,9.84375,24,50,-9999,1430596191.826278,-23.22510147094727,-1.054237365722656,-40.08929443359375,85.83005523681641,76.40663146972656,10,168392.67723825,0.039398193359375,-0.134552001953125,-1.00823974609375,168392.61733125,-0.1599659666689175,0.07507264691657067,-0.1498350355661471,168392.61733125,-0.1598933494358971,0.03409828209900462,0.1400286482779126,-0.07328060269355774,-0.01182758994400501,-0.1400946527719498,-0.01383000705391169,-0.002136891474947333,0.0008516076486557722,XArbitraryZVertical,0.07108172532508872,0.01136615459755145,-0.07846545819063294,0.9943145230385618,0.03375798463821411,-0.139571487903595,-0.9896364212036133,0,0,0,-1
2015-05-02 22:49:52.020,17,1430596191.155158,51.73556679864576,39.2678584065654,96.72351,0,9.84375,24,50,-9999,1430596191.945664,-23.12244033813477,-0.9515762329101562,-39.52348327636719,86.28285217285156,76.85942840576172,10,168392.77459025,0.0437164306640625,-0.132049560546875,-0.99725341796875,168392.71489525,-0.05533968850351954,0.1031186626723041,-0.1080327275157184,168392.71489525,-0.1717205506593683,0.03608000831707732,0.1378152256462267,0.0313379280269146,0.01621799729764462,-0.09829242527484894,0.004827698692679405,0.003742910223081708,-0.02421000227332115,XArbitraryZVertical,0.07013155770845284,0.01202639847927538,-0.08429992024393511,0.99389660116124,0.03573016077280045,-0.137379378080368,-0.9898738861083984,0,0,0,-1
2015-05-02 22:49:52.125,18,1430596191.155158,51.73556679864576,39.2678584065654,96.72351,0,9.84375,24,50,-9999,1430596192.064395,-23.15666389465332,-0.3013839721679688,-40.222412109375,86.63768005371094,77.21425628662109,10,168392.87192625,0.03631591796875,-0.1337127685546875,-0.999267578125,168392.81242925,-0.07971719985766886,0.1031239889944843,-0.07687427539400928,168392.81242925,-0.1797097789636533,0.03928223342538367,0.1394301593579255,0.007310274057090282,0.01618683710694313,-0.06657439470291138,0.0007360658491961658,0.006761419586837292,0.003661030437797308,XArbitraryZVertical,0.0711223032649228,0.0132635642889348,-0.0881362191448537,0.9934775803788884,0.0388910099864006,-0.1389788240194321,-0.989531397819519,0,0,0,-1
2015-05-02 22:49:52.215,19,1430596192.155157,51.73556679864576,39.2678584065654,96.44019,0,9.84375,16,50,-9999,1430596192.183632,-23.32776260375977,-1.225341796875,-39.98942565917969,86.88622283935547,77.46279907226562,10,168392.96925825,0.0291595458984375,-0.1406097412109375,-0.99615478515625,168392.90996425,-0.1158813295642909,0.06946908966693495,-0.01460477541799454,168392.90996425,-0.1827025430218749,0.03955406305664871,0.1408573691090302,-0.02886495552957058,-0.01747002266347408,-0.004305089358240366,-0.00452991621568799,0.002742507727816701,0.003786911023780704,XArbitraryZVertical,0.07186290811666185,0.01322622390623113,-0.08959449616437837,0.9932943248077299,0.0391521081328392,-0.1403920501470566,-0.9893215894699097,0,0,0,-1
2015-05-02 22:49:52.312,20,1430596192.155157,51.73556679864576,39.2678584065654,96.44019,0,9.84375,16,50,-9999,1430596192.283798,-23.77263259887695,-0.3013763427734375,-40.35555267333984,87.01044464111328,77.58702087402344,10,168393.06661825,0.031524658203125,-0.145172119140625,-1.004562377929688,168393.00749825,-0.09574809803940083,0.09362502601838966,0.000423176297213591,168393.00749825,-0.1819819373720181,0.03705009908355343,0.1359918836937746,-0.008485808968544006,0.006648862268775702,0.0111228059977293,-0.009722091257572174,-0.007172868121415377,-0.02343188226222992,XArbitraryZVertical,0.06933017910821369,0.01223206721870934,-0.08938655366197569,0.993505786002683,0.03669963032007217,-0.1355731040239334,-0.9900873899459839,0,0,0,-1
2015-05-02 22:49:52.409,21,1430596192.155157,51.73556679864576,39.2678584065654,96.44019,0,9.84375,16,50,-9999,1430596192.40188,-23.19088363647461,-0.4724884033203125,-40.25569915771484,87.17423248291016,77.75080871582031,10,168393.16393825,0.036651611328125,-0.1409759521484375,-0.9922637939453125,168393.10506325,-0.07569076660557807,0.04673501502147353,-0.002029861382858395,168393.10506325,-0.1810829637450556,0.0348788310617513,0.1380687789158542,0.01157728023827076,-0.04024850577116013,0.008670694194734097,-0.002023427747189999,-0.006793908774852753,-0.008943852037191391,XArbitraryZVertical,0.07025957538909258,0.01108970046649667,-0.08899076601826178,0.9934894333475245,0.03453990817070007,-0.1376305222511292,-0.9898812174797058,0,0,0,-1
2015-05-02 22:49:52.508,22,1430596192.155157,51.73556679864576,39.2678584065654,96.44019,0,9.84375,16,50,-9999,1430596192.40188,-23.19088363647461,-0.4724884033203125,-40.25569915771484,87.17423248291016,77.75080871582031,10,168393.26128925,0.035858154296875,-0.134246826171875,-0.981597900390625,168393.20258525,-0.09871086475211399,0.05267040214293313,-0.01203802075937617,168393.20258525,-0.1809768246406134,0.03209399903361931,0.1393708253738569,-0.01144488994032145,-0.03431058302521706,-0.001337784575298429,0.003836666932329535,0.002643823157995939,0.001405560877174139,XArbitraryZVertical,0.07078173200107654,0.009650659902485868,-0.08902132995068097,0.99346465160678,0.03177734836935997,-0.1389200687408447,-0.989793598651886,0,0,0,-1
2015-05-02 22:49:52.605,23,1430596192.155157,51.73556679864576,39.2678584065654,96.44019,0,9.84375,16,50,-9999,1430596192.520903,-23.39620590209961,-0.609375,-39.85630798339844,87.23929595947266,77.81587219238281,10,168393.35864125,0.02777099609375,-0.1374969482421875,-1.008331298828125,168393.30013125,-0.1764804949046079,0.07653019498117104,-0.01547403119779641,168393.30013125,-0.1808633441934728,0.03078102199572602,0.1346304560588103,-0.08921954035758972,-0.01044533960521221,-0.004774539265781641,-0.002894518664106727,0.002540770685300231,0.006259176880121231,XArbitraryZVertical,0.06836830571694008,0.00921847950438655,-0.08906230005466677,0.9936340881421034,0.03049766831099987,-0.1342241168022156,-0.9904816150665283,0,0,0,-1
2015-05-02 22:49:52.701,24,1430596192.155157,51.73556679864576,39.2678584065654,96.44019,0,9.84375,16,50,-9999,1430596192.638531,-23.7384147644043,-0.7462539672851562,-40.05599975585938,87.37761688232422,77.95419311523438,10,168393.45596125,0.0363616943359375,-0.135955810546875,-1.000030517578125,168393.39769625,-0.1042273366341041,0.09240982561298651,0.005136438794435827,168393.39769625,-0.1801433303772972,0.03054936628429994,0.1301166755977959,-0.01660933159291744,0.005380073096603155,0.01646172069013119,0.004473107866942883,-0.006129683926701546,-0.01834582164883614,XArbitraryZVertical,0.06611235492496863,0.009332807312421473,-0.08876017916363305,0.9938127015835423,0.03028641454875469,-0.1297498345375061,-0.991084098815918,0,0,0,-1
2015-05-02 22:49:52.799,25,1430596192.155157,51.73556679864576,39.2678584065654,96.44019,0,9.84375,16,50,-9999,1430596192.75766,-23.56730842590332,-0.7804718017578125,-40.08929443359375,87.49871063232422,78.07528686523438,10,168393.55331225,0.0366973876953125,-0.130706787109375,-0.9958648681640625,168393.49523025,-0.1076870492062261,0.07558077805255779,0.0183036398560056,168393.49523025,-0.1780261563850891,0.0310147158033005,0.1285803328440742,-0.02006528154015541,-0.01144197769463062,0.02962811850011349,0.004967068787664175,-0.002968743676319718,-0.01117342244833708,XArbitraryZVertical,0.06535947369575765,0.009702947239819156,-0.08770896235269124,0.9939522774942888,0.03075375594198704,-0.1282263249158859,-0.99126797914505,0,0,0,-1
2015-05-02 22:49:52.896,26,1430596192.155157,51.73556679864576,39.2678584065654,96.44019,0,9.84375,16,50,-9999,1430596192.8776,-23.19087600708008,0.07505035400390625,-40.12258148193359,87.51020812988281,78.08678436279297,10,168393.65063325,0.0403289794921875,-0.1356048583984375,-0.995880126953125,168393.59276425,-0.0616868003295054,0.0721024233528053,0.02382730227293894,168393.59276425,-0.1742504231925535,0.03091116920234356,0.1288342567586852,0.02593576163053513,-0.01490997429937124,0.035150445997715,0.008061441592872143,-0.002640626160427928,-0.008944518864154816,XArbitraryZVertical,0.06546278797598283,0.009763702036926666,-0.08583307958946292,0.9941086338832037,0.03065010719001293,-0.128478154540062,-0.9912385940551758,0,0,0,-1
2015-05-02 22:49:53.005,27,1430596192.155157,51.73556679864576,39.2678584065654,96.44019,0,9.84375,16,50,-9999,1430596192.998007,-24.5254955291748,-0.4382476806640625,-40.022705078125,87.55529022216797,78.13186645507812,10,168393.74798525,0.0499114990234375,-0.1478271484375,-0.998382568359375,168393.69029825,-0.1221400244420861,0.0767139530963865,0.003540938985369355,168393.69029825,-0.1718684249903022,0.03200159053935216,0.1315852797023269,-0.03422898426651955,-0.0103317704051733,0.01537916529923677,0.01295820809900761,-0.00601640809327364,0.003710719756782055,XArbitraryZVertical,0.06686448912338226,0.01026449429341545,-0.08458377886514071,0.9941173796911794,0.03171952813863754,-0.1312058866024017,-0.9908475875854492,0,0,0,-1
2015-05-02 22:49:53.091,28,1430596192.155157,51.73556679864576,39.2678584065654,96.44019,0,9.84375,16,50,-9999,1430596192.998007,-24.5254955291748,-0.4382476806640625,-40.022705078125,87.55529022216797,78.13186645507812,10,168393.84533625,0.049713134765625,-0.1524200439453125,-1.013809204101562,168393.78786325,-0.05987079078218036,0.03956099167701808,0.0005845638592723928,168393.78786325,-0.1705425509962862,0.03226152381086209,0.1336889241600757,0.02805189229547977,-0.04746438190340996,0.01242065895348787,0.01405240129679441,-0.01339169032871723,-3.936295615858398e-05,XArbitraryZVertical,0.06791404147694854,0.0103475349807162,-0.08389323021461,0.9941038866306892,0.03196810558438301,-0.1332910507917404,-0.9905612468719482,0,0,0,-1
2015-05-02 22:49:53.188,29,1430596193.165175,51.73556679864576,39.2678584065654,96.5376,0,9.84375,12,30,-9999,1430596193.114791,-23.39620590209961,-0.8146743774414062,-39.45687866210938,88.40349578857422,78.98007202148438,10,168393.94265525,0.05560302734375,-0.16754150390625,-0.9939727783203125,168393.88539125,0.1209629072402711,0.001525724988506396,0.003058374195846997,168393.88539125,-0.1706086066785628,0.0258831420266144,0.1492166545173824,0.2090639621019363,-0.08549153804779053,0.01527878362685442,0.03039183095097542,-0.009585363790392876,-0.03373648226261139,XArbitraryZVertical,0.07536140608908214,0.006508014575474873,-0.08399562845384001,0.9935909815508589,0.02559266611933708,-0.1486635357141495,-0.9885566234588623,0,0,0,-1
2015-05-02 22:49:53.285,30,1430596193.165175,51.73556679864576,39.2678584065654,96.5376,0,9.84375,12,30,-9999,1430596193.233874,-24.28594779968262,-2.115077972412109,-39.19062042236328,90.12522125244141,80.70179748535156,10,168394.04000625,0.0240631103515625,-0.160980224609375,-0.9901275634765625,168393.98293125,0.07524362185855375,0.08793837814274347,-0.05159128926923302,168393.98293125,-0.1716673052888996,0.02714971093472399,0.1621214489597197,0.1633501201868057,0.0009517957223579288,-0.03937568143010139,0.02002355828881264,0.001667936099693179,-0.008914243429899216,XArbitraryZVertical,0.08182634598458693,0.006539105378110869,-0.08434382125578409,0.993049751532938,0.02679040655493736,-0.1614121943712234,-0.9865233898162842,0,0,0,-1
2015-05-02 22:49:53.383,31,1430596193.165175,51.73556679864576,39.2678584065654,96.5376,0,9.84375,12,30,-9999,1430596193.352985,-23.08822250366211,-2.696826934814453,-38.89108276367188,90.09080505371094,80.66738128662109,10,168394.13732725,0.0008392333984375,-0.1786956787109375,-0.929412841796875,168394.08046525,0.1329141089481106,0.2287319818080716,-0.1273273296133424,168394.08046525,-0.1821042672718678,0.03983416360595254,0.1710437892682069,0.2211662828922272,0.1417485773563385,-0.1147143691778183,-0.007473710458725691,0.002593201585114002,-0.04296195134520531,XArbitraryZVertical,0.08685122750222725,0.01199560061034094,-0.08888197982964961,0.9921758732749496,0.03924250975251198,-0.1702110022306442,-0.9846259355545044,0,0,0,-1
2015-05-02 22:49:53.485,32,1430596193.165175,51.73556679864576,39.2678584065654,96.5376,0,9.84375,12,30,-9999,1430596193.472114,-22.40380477905273,-2.902149200439453,-40.62181091308594,89.40360260009766,79.98017883300781,10,168394.23467925,-0.024505615234375,-0.2115478515625,-1.024932861328125,168394.17803025,-0.273515432382735,0.1661229287930717,-0.2042681840346037,168394.17803025,-0.1977371338718273,0.05040711723120796,0.1810397853884237,-0.1851099729537964,0.07914619147777557,-0.1912862956523895,-0.06434808671474457,-0.02893191203474998,0.08899024128913879,XArbitraryZVertical,0.09240363906881256,0.01605518156912901,-0.09600528747578421,0.9909524627389086,0.04956232011318207,-0.1800524592399597,-0.9824075698852539,0,0,0,-1
2015-05-02 22:49:53.578,33,1430596193.165175,51.73556679864576,39.2678584065654,96.5376,0,9.84375,12,30,-9999,1430596193.472114,-22.40380477905273,-2.902149200439453,-40.62181091308594,89.40360260009766,79.98017883300781,10,168394.33203025,0.002227783203125,-0.254852294921875,-0.9923858642578125,168394.27556425,-0.2364985584950696,0.07020385581168781,-0.08433618645230229,168394.27556425,-0.2101166670763635,0.05329899592128122,0.157004153128584,-0.1480855792760849,-0.01678691804409027,-0.07135070115327835,-0.05786752700805664,-0.08068537712097168,-0.06253056973218918,XArbitraryZVertical,0.08074706730268913,0.01819705537882412,-0.1024269823433418,0.9912908208924284,0.05261850357055664,-0.1563599109649658,-0.9862975478172302,0,0,0,-1
2015-05-02 22:49:53.675,34,1430596193.165175,51.73556679864576,39.2678584065654,96.5376,0,9.84375,12,30,-9999,1430596193.589514,-22.71179389953613,-1.430656433105469,-40.25569915771484,88.14696502685547,78.72354125976562,10,168394.42941125,-0.00714111328125,-0.23419189453125,-0.946319580078125,168394.37309825,-0.08892028563665569,-0.03637292153608422,-0.01615793096572875,168394.37309825,-0.2109232449732771,0.0417115759312041,0.15618461612749,-0.0004759899456985295,-0.1233801543712616,-0.003167008282616735,-0.04346547275781631,-0.09441907703876495,0.02627538330852985,XArbitraryZVertical,0.07975121429545887,0.01246486299216566,-0.1033047348596796,0.9913690043392269,0.04119191318750381,-0.15555040538311,-0.9869687557220459,0,0,0,-1
2015-05-02 22:49:53.772,35,1430596193.165175,51.73556679864576,39.2678584065654,96.5376,0,9.84375,12,30,-9999,1430596193.708465,-23.22510147094727,-1.19110107421875,-39.49018096923828,88.45236968994141,79.02894592285156,10,168394.52673225,-0.01141357421875,-0.258941650390625,-0.929962158203125,168394.47063325,-0.1016054545409211,-0.01463833124772954,0.03109586783609221,168394.47063325,-0.208592561049088,0.02766734349413093,0.161842660030013,-0.01294982526451349,-0.1016343683004379,0.04455205053091049,-0.04596380144357681,-0.07490114867687225,0.06142920255661011,XArbitraryZVertical,0.08182153751822137,0.005298536011879949,-0.1026445894214501,0.9913330670247913,0.02730230428278446,-0.1611370593309402,-0.9865543246269226,0,0,0,-1
2015-05-02 22:49:53.885,36,1430596193.165175,51.73556679864576,39.2678584065654,96.5376,0,9.84375,12,30,-9999,1430596193.828495,-23.97795867919922,-1.259544372558594,-39.49019622802734,88.17746734619141,78.75404357910156,10,168394.62408225,0.0124359130859375,-0.2811431884765625,-1.058135986328125,168394.56819725,-0.2005386932440567,0.09602879521829519,0.1225381670250529,168394.56819725,-0.1998093028004675,0.01660750803458087,0.1671631553975715,-0.1117843389511108,0.009008360095322132,0.136001855134964,-0.01521559059619904,-0.1042594239115715,-0.001105264062061906,XArbitraryZVertical,0.08389045691342001,-9.290398226386637e-05,-0.09869717091525461,0.991575136366894,0.01637525856494904,-0.1663857251405716,-0.9859247803688049,0,0,0,-1
2015-05-02 22:49:53.967,37,1430596193.165175,51.73556679864576,39.2678584065654,96.5376,0,9.84375,12,30,-9999,1430596193.946584,-22.81445503234863,-0.0276031494140625,-38.49166870117188,87.61955261230469,78.19612884521484,10,168394.72146125,-0.0154876708984375,-0.3029022216796875,-1.031509399414062,168394.66573125,0.0002141181516423708,0.2662673731599754,0.1316395200503987,168394.66573125,-0.1853691528731642,0.02472011120123521,0.1665258904440134,0.08897965401411057,0.1792457103729248,0.1451038718223572,-0.01268743257969618,-0.1197498962283134,-0.1172078475356102,XArbitraryZVertical,0.08394343818535856,0.004567398765303621,-0.09120074760275018,0.992277713994843,0.0243756640702486,-0.1657572984695435,-0.9858652949333191,0,0,0,-1
2015-05-02 22:49:54.064,38,1430596193.165175,51.73556679864576,39.2678584065654,96.5376,0,9.84375,12,30,-9999,1430596193.946584,-22.81445503234863,-0.0276031494140625,-38.49166870117188,87.61955261230469,78.19612884521484,10,168394.818904375,0.01226806640625,-0.1423797607421875,-1.082748413085938,168394.763355375,-0.1427885776379064,0.1669133550046072,-0.0009840380227842786,168394.763355375,-0.1780426371123754,0.03828935520000776,0.1742842746425319,-0.05398999899625778,0.07988161593675613,0.01248409785330296,-0.03745595365762711,-0.120755635201931,-0.01687802374362946,XArbitraryZVertical,0.08836684927582805,0.01125930554371482,-0.08689071430234264,0.9922270565529637,0.03770009428262711,-0.1734032928943634,-0.9841290712356567,0,0,0,-1
2015-05-02 22:49:54.161,39,1430596193.165175,51.73556679864576,39.2678584065654,96.5376,0,9.84375,12,30,-9999,1430596194.065612,-22.13003730773926,-0.1644668579101562,-39.75643920898438,83.24897003173828,73.82554626464844,10,168394.916255375,0.066070556640625,-0.06707763671875,-0.835479736328125,168394.860919375,0.3450588582227327,0.1065967510559476,-0.0958711360817625,168394.860919375,-0.1809399608703712,0.04201254661833633,0.1843653886775444,0.4340184926986694,0.01957527920603752,-0.08193695545196533,-0.02058222517371178,0.1488988846540451,-0.116127036511898,XArbitraryZVertical,0.09354515846636959,0.01251524013049998,-0.0880175504793077,0.991637828493645,0.04128840193152428,-0.1833227127790451,-0.9821853637695312,0,0,0,-1
2015-05-02 22:49:54.259,40,1430596194.169582,51.73556679864576,39.2678584065654,96.46417,0,9.84375,12,30,-9999,1430596194.18478,-21.65094375610352,-1.396430969238281,-40.15584564208984,82.71819305419922,73.29476928710938,10,168395.013610375,0.1253662109375,-0.0425262451171875,-1.1075439453125,168394.958454375,-0.362009345928869,0.08816927420925334,0.0242358311841571,168394.958454375,-0.1812995748868174,0.0451037723982062,0.2239056480374381,-0.2730514407157898,0.001149500021710992,0.0381697379052639,0.06922672688961029,0.1210415363311768,0.1700452119112015,XArbitraryZVertical,0.1132606875609583,0.01220592226701937,-0.08742718673992907,0.9896360538771637,0.04396296665072441,-0.2220394611358643,-0.9740460515022278,0,0,0,-1
2015-05-02 22:49:54.364,41,1430596194.169582,51.73556679864576,39.2678584065654,96.46417,0,9.84375,12,30,-9999,1430596194.303894,-22.84867095947266,-1.225318908691406,-39.65660095214844,84.41957092285156,74.99614715576172,10,168395.110950375,0.0334930419921875,-0.1862640380859375,-0.8622283935546875,168395.055988375,-0.1207850080794538,-0.02313514670562735,0.02104376630158812,168395.055988375,-0.1788822310305491,0.02877160115752703,0.1965040042390036,-0.03185605630278587,-0.1101423352956772,0.03497394546866417,0.06614635139703751,0.1362513303756714,-0.08038075268268585,XArbitraryZVertical,0.09897051573131269,0.005497665735079719,-0.0874764573327078,0.9912227207342729,0.02821400202810764,-0.1952418088912964,-0.9803492426872253,0,0,0,-1
2015-05-02 22:49:54.454,42,1430596194.169582,51.73556679864576,39.2678584065654,96.46417,0,9.84375,12,30,-9999,1430596194.422941,-22.54068756103516,-0.1644668579101562,-39.49019622802734,83.45195007324219,74.02852630615234,10,168395.208308375,0.02655029296875,-0.22418212890625,-0.964569091796875,168395.153522375,-0.3164570407474997,-0.06446740682365713,0.06507514018441321,168395.153522375,-0.1651889015999211,0.02299920776433816,0.1808646190459177,-0.2275398075580597,-0.1514697968959808,0.07900409400463104,-0.007546378765255213,-0.01956747472286224,0.1054986864328384,XArbitraryZVertical,0.09094011400788171,0.003963260591437538,-0.08112307156666558,0.9925387828640752,0.02262206189334393,-0.1798801571130753,-0.9834283590316772,0,0,0,-1
2015-05-02 22:49:54.551,43,1430596194.169582,51.73556679864576,39.2678584065654,96.46417,0,9.84375,12,30,-9999,1430596194.541723,-23.73841094970703,0.9648208618164062,-39.92288208007812,82.62641906738281,73.20299530029297,10,168395.305655375,0.043853759765625,-0.2592620849609375,-0.9586639404296875,168395.251087375,-0.1122652894361813,-0.1880202382240302,0.009091765645421511,168395.251087375,-0.1573782518597861,0.005085482571641807,0.1667918308465569,-0.02332726866006851,-0.2750127017498016,0.02301765233278275,0.03857947513461113,-0.07458102703094482,-0.01404287945479155,XArbitraryZVertical,0.08324043664923772,-0.004021903492976844,-0.07812334209230036,0.9934543761134976,0.005014887079596519,-0.1660195589065552,-0.986109733581543,0,0,0,-1
2015-05-02 22:49:54.649,44,1430596194.169582,51.73556679864576,39.2678584065654,96.46417,0,9.84375,12,30,-9999,1430596194.541723,-23.73841094970703,0.9648208618164062,-39.92288208007812,82.62641906738281,73.20299530029297,10,168395.402985375,0.0207672119140625,-0.2517547607421875,-1.109390258789062,168395.348621375,-0.199541073099713,0.01572436834026385,-0.2733306090030835,168395.348621375,-0.172566621226514,-0.005995857912418637,0.1734214491385249,-0.11055076867342,-0.07124324887990952,-0.2594123482704163,0.0387733168900013,-0.1116567254066467,0.003766014240682125,XArbitraryZVertical,0.08602217078107365,-0.01043856520298493,-0.08611079887742,0.992510026552527,-0.005905885715037584,-0.1725534796714783,-0.984982430934906,0,0,0,-1
2015-05-02 22:49:54.748,45,1430596194.169582,51.73556679864576,39.2678584065654,96.46417,0,9.84375,12,30,-9999,1430596194.659775,-24.3543872833252,1.717689514160156,-39.72320556640625,82.29708862304688,72.87366485595703,10,168395.500331375,-0.01885986328125,-0.0395355224609375,-1.267608642578125,168395.446155375,-0.2615759485836918,0.05757408065809603,-0.323692849429245,168395.446155375,-0.2046176189048959,-0.00519700306197527,0.1615386499349736,-0.1724699884653091,-0.02939855121076107,-0.3093400597572327,0.006502611096948385,-0.1014005318284035,-0.1578229963779449,XArbitraryZVertical,0.07999486077225032,-0.0108164956035642,-0.1020056822255993,0.9915032357317684,-0.005129320081323385,-0.1608370095491409,-0.9869676232337952,0,0,0,-1
2015-05-02 22:49:54.848,46,1430596194.169582,51.73556679864576,39.2678584065654,96.46417,0,9.84375,12,30,-9999,1430596194.77897,-24.66237258911133,0.7252731323242188,-38.69141387939453,82.31938171386719,72.89595794677734,10,168395.597688375,-0.0753631591796875,-0.0186309814453125,-0.700103759765625,168395.543720375,0.6356462184573116,-0.2086038102892527,-0.3847247784466999,168395.543720375,-0.2391680957510984,-0.009673448510648929,0.1774829985918077,0.7247504591941833,-0.2955747544765472,-0.3703722357749939,-0.004043721593916416,0.2139824777841568,-0.1563646048307419,XArbitraryZVertical,0.08741636743738206,-0.01535604668608174,-0.1192540024507013,0.988888797304179,-0.009521341882646084,-0.1765526682138443,-0.9842451214790344,0,0,0,-1
2015-05-02 22:49:54.941,47,1430596194.169582,51.73556679864576,39.2678584065654,96.46417,0,9.84375,12,30,-9999,1430596194.897955,-23.6357536315918,-2.765247344970703,-39.95619964599609,85.02088165283203,75.59745788574219,10,168395.695024375,-0.0496368408203125,-0.094696044921875,-1.091552734375,168395.641254375,-0.1692771767881616,0.3898524288095385,-0.3829961205831294,168395.641254375,-0.2699293882597683,0.0040623543247225,0.2280017800052289,-0.08017469942569733,0.3028832077980042,-0.3686438798904419,-0.1554312109947205,0.1619903296232224,0.1155609339475632,XArbitraryZVertical,0.1129909489801613,-0.01330655142198465,-0.1334526894718692,0.9845031035047738,0.003957209642976522,-0.2260314673185349,-0.9741119742393494,0,0,0,-1
2015-05-02 22:49:55.038,48,1430596194.169582,51.73556679864576,39.2678584065654,96.46417,0,9.84375,12,30,-9999,1430596195.0173,-22.84867095947266,-3.415451049804688,-39.72322845458984,88.05977630615234,78.6363525390625,10,168395.792361375,0.0357513427734375,-0.221832275390625,-0.7508697509765625,168395.738803375,0.08370448464173549,0.210498116772626,-0.151242782518363,168395.738803375,-0.2958452440430338,0.02072885079346238,0.2245587477062835,0.1728052198886871,0.1235305666923523,-0.1368908286094666,0.04626033082604408,0.08926861733198166,0.01356241200119257,XArbitraryZVertical,0.1123319760698493,-0.006326013769027255,-0.1452992959966495,0.9829697977480815,0.02020695246756077,-0.2226762175559998,-0.9746830463409424,0,0,0,-1
2015-05-02 22:49:55.135,49,1430596194.169582,51.73556679864576,39.2678584065654,96.46417,0,9.84375,12,30,-9999,1430596195.0173,-22.84867095947266,-3.415451049804688,-39.72322845458984,88.05977630615234,78.6363525390625,10,168395.889735375,-0.04986572265625,-0.1795196533203125,-0.9671173095703125,168395.836322375,-0.4663903469578707,-0.007456052103894844,-0.1004997100563202,168395.836322375,-0.3099680337500048,0.01565359826977303,0.2046759792758905,-0.377291351556778,-0.09442189335823059,-0.08614803850650787,-0.01233550999313593,0.0110196890309453,0.1623565405607224,XArbitraryZVertical,0.1021337211821692,-0.008076840073252814,-0.1527619863679809,0.982938066804217,0.01532623264938593,-0.203249916434288,-0.9790069460868835,0,0,0,-1
2015-05-02 22:49:55.247,50,1430596195.183695,51.73556679864576,39.2678584065654,96.47839,0,9.84375,8,30,-9999,1430596195.136481,-23.25932121276855,-1.430641174316406,-39.92293548583984,85.15010833740234,75.7266845703125,10,168395.987087375,-0.019439697265625,-0.267364501953125,-1.07061767578125,168395.933887375,-0.3787236112463153,0.3180179194623951,0.03409831564904754,168395.933887375,-0.3135209609858541,0.02513650753662656,0.1838842681978307,-0.2896322011947632,0.2310286909341812,0.04845787957310677,-0.06044621020555496,-0.06235901266336441,0.02456308156251907,XArbitraryZVertical,0.0926335101890876,-0.001971203404261754,-0.1543078094945205,0.9836687689848537,0.02471012622117996,-0.18284972012043,-0.982830286026001,0,0,0,-1
2015-05-02 22:49:55.330,51,1430596195.183695,51.73556679864576,39.2678584065654,96.47839,0,9.84375,8,30,-9999,1430596195.255729,-22.06159210205078,-0.3697967529296875,-41.88664245605469,83.92291259765625,74.49948883056641,10,168396.084407375,0.0316162109375,-0.2235260009765625,-1.24200439453125,168396.031421375,-0.4278120617230919,0.1520720908818137,0.1546534929264275,168396.031421375,-0.2984284512229357,0.02649065234324915,0.1502402677913226,-0.3386950492858887,0.06506139785051346,0.1690202206373215,-0.052281703799963,-0.1165596544742584,-0.1928251385688782,XArbitraryZVertical,0.07617251227351543,0.00190485989557737,-0.1472458985343297,0.9861606183819777,0.02618917636573315,-0.1496756970882416,-0.9883882403373718,0,0,0,-1
2015-05-02 22:49:55.427,52,1430596195.183695,51.73556679864576,39.2678584065654,96.47839,0,9.84375,8,30,-9999,1430596195.374813,-21.4113941192627,2.128334045410156,-41.12112426757812,82.22372436523438,72.80030059814453,10,168396.181758375,0.0984039306640625,0.078765869140625,-1.063186645507812,168396.128955375,0.1111358428178787,0.1377237778767938,0.105734153178871,168396.128955375,-0.2855379239349676,0.03717906531233849,0.1314556292990272,0.2002512216567993,0.05071468651294708,0.1201006174087524,0.06640642881393433,0.0686536431312561,-0.2607472836971283,XArbitraryZVertical,0.06764015861881205,0.009015911074218933,-0.1407442038117188,0.9876915466798911,0.03684980049729347,-0.1310773491859436,-0.9906870722770691,0,0,0,-1
2015-05-02 22:49:55.525,53,1430596195.183695,51.73556679864576,39.2678584065654,96.47839,0,9.84375,8,30,-9999,1430596195.493615,-20.62432098388672,-1.054206848144531,-41.48725128173828,81.24715423583984,71.82373046875,10,168396.279109375,0.0612030029296875,0.0474853515625,-0.887969970703125,168396.226520375,0.3480506533913277,0.08697591172478883,0.2799485643119304,168396.226520375,-0.2588683047518613,0.03395588288615332,0.2147729773668826,0.437164306640625,-3.1480667530559e-05,0.2943147420883179,0.07440509647130966,0.2442840784788132,0.183721736073494,XArbitraryZVertical,0.1084470092470015,0.00290605368656959,-0.1265066516845958,0.9860156530790422,0.03316936641931534,-0.2131256312131882,-0.9764615893363953,0,0,0,-1
2015-05-02 22:49:55.622,54,1430596195.183695,51.73556679864576,39.2678584065654,96.47839,0,9.84375,8,30,-9999,1430596195.613223,-22.16425895690918,-0.6093368530273438,-41.32084655761719,83.09062194824219,73.66719818115234,10,168396.376460375,-0.012054443359375,-0.1256256103515625,-0.87646484375,168396.324043375,-0.1797473946138081,-0.1220151221869614,0.003685016000342642,168396.324043375,-0.2487730952002526,0.02323439138872799,0.1973832081187115,-0.09063547849655151,-0.209020808339119,0.01805091463029385,0.01380937453359365,0.1942424476146698,-0.04023515805602074,XArbitraryZVertical,0.09919787068124715,-0.0007524955573025155,-0.1223182092536051,0.9875208716213137,0.02278120256960392,-0.1961040198802948,-0.9803184270858765,0,0,0,-1
2015-05-02 22:49:55.725,55,1430596195.183695,51.73556679864576,39.2678584065654,96.47839,0,9.84375,8,30,-9999,1430596195.613223,-22.16425895690918,-0.6093368530273438,-41.32084655761719,83.09062194824219,73.66719818115234,10,168396.473811375,0.0146484375,-0.191497802734375,-0.9019775390625,168396.421593375,-0.199471298279153,-0.09559762943781136,-6.498113059793341e-05,168396.421593375,-0.2419334508113786,0.006565330355807598,0.1840806883493804,-0.1102659329771996,-0.1826107650995255,0.01465727388858795,-0.005386247299611568,0.03494102507829666,0.1120968163013458,XArbitraryZVertical,0.0916327627804112,-0.007846072763376063,-0.1198610003523823,0.9885217329537738,0.006454362533986568,-0.1830428242683411,-0.9830837249755859,0,0,0,-1
2015-05-02 22:49:55.817,56,1430596195.183695,51.73556679864576,39.2678584065654,96.47839,0,9.84375,8,30,-9999,1430596195.731386,-22.0958137512207,0.07508087158203125,-41.25429534912109,82.41367340087891,72.99024963378906,10,168396.571193375,-0.0459136962890625,-0.2831878662109375,-1.01116943359375,168396.519137375,-0.01634381960981628,-0.0885711452177463,-0.3040309974172989,168396.519137375,-0.2577984806691767,-0.007429145334604272,0.1909906212480676,0.07287339121103287,-0.1755731254816055,-0.2893120050430298,0.01571684330701828,-0.04329218342900276,0.07453249394893646,XArbitraryZVertical,0.09408325103132215,-0.01592344590373,-0.1283072889794984,0.9871332358606131,-0.00729399174451828,-0.1898315995931625,-0.9817895889282227,0,0,0,-1
2015-05-02 22:49:55.914,57,1430596195.183695,51.73556679864576,39.2678584065654,96.47839,0,9.84375,8,30,-9999,1430596195.850003,-22.74601364135742,-0.5066757202148438,-40.88818359375,83.01249694824219,73.58907318115234,10,168396.668544375,0.0254364013671875,-0.2098236083984375,-1.199737548828125,168396.616671375,-0.3011827466314592,-0.05368959389210645,-0.5215265699541082,168396.616671375,-0.2995944240346117,-0.01876648140193219,0.1801025770856534,-0.2119337618350983,-0.1406978219747543,-0.5068053007125854,-0.01753362827003002,-0.03595739975571632,-0.1968899071216583,XArbitraryZVertical,0.08752398803227773,-0.02266072461230363,-0.1494607520798512,0.9846255768903637,-0.01846185512840748,-0.179130494594574,-0.9836521148681641,0,0,0,-1
2015-05-02 22:49:56.011,58,1430596195.183695,51.73556679864576,39.2678584065654,96.47839,0,9.84375,8,30,-9999,1430596195.969301,-23.39620590209961,-1.225311279296875,-40.85490417480469,86.45930480957031,77.03588104248047,10,168396.765896375,-0.049835205078125,0.0322265625,-1.129669189453125,168396.714208375,0.01653876300161009,-0.08664301658852892,-0.5593820732690395,168396.714208375,-0.3495437741648383,-0.01760700640290058,0.1759485098875916,0.1057860106229782,-0.1736495494842529,-0.5446611046791077,0.002136521507054567,0.02037899568676949,-0.1846437752246857,XArbitraryZVertical,0.08499417110804885,-0.02391270971115738,-0.1739660331259264,0.9807853957468677,-0.01733427494764328,-0.1750420778989792,-0.9844083189964294,0,0,0,-1
2015-05-02 22:49:56.126,59,1430596195.183695,51.73556679864576,39.2678584065654,96.47839,0,9.84375,8,30,-9999,1430596196.08815,-23.56730842590332,-6.666419982910156,-39.95626068115234,91.43531799316406,82.01189422607422,10,168396.863244375,-0.1393280029296875,-0.0184326171875,-0.7788848876953125,168396.811750375,0.7347011636222639,0.07435306079003126,-0.4418495838288996,168396.811750375,-0.3952801910822452,-0.02615805403876829,0.2623518366801125,0.8239466547966003,-0.01265177223831415,-0.4271288812160492,-0.1033104434609413,0.2556905150413513,0.144849881529808,XArbitraryZVertical,0.1256967456429024,-0.03839504024892539,-0.1963297134124919,0.9716896586104132,-0.02526011504232883,-0.2593526244163513,-0.9654523134231567,0,0,0,-1
2015-05-02 22:49:56.209,60,1430596195.183695,51.73556679864576,39.2678584065654,96.47839,0,9.84375,8,30,-9999,1430596196.188268,-22.13003349304199,-6.940185546875,-41.75356292724609,93.42068481445312,83.99726104736328,10,168396.960597375,0.0773162841796875,-0.194580078125,-0.7867431640625,168396.909313375,-0.1264948254565837,0.1698590774863439,-0.3208485933850403,168396.909313375,-0.4407223363472776,0.002367405633343979,0.2377416926326505,-0.0372510589659214,0.0828559473156929,-0.3061281442642212,-0.01694925129413605,0.2172284126281738,-0.0749596431851387,XArbitraryZVertical,0.1159802243544278,-0.02477494195516685,-0.2169024426851316,0.9689623935772861,0.002300813794136047,-0.2355084419250488,-0.9718695878982544,0,0,0,-1
2015-05-02 22:49:56.303,61,1430596196.187231,51.73556679864576,39.2678584065654,96.45135,0,9.84375,8,30,-9999,1430596196.188268,-22.13003349304199,-6.940185546875,-41.75356292724609,93.42068481445312,83.99726104736328,10,168397.057918375,-0.0411376953125,-0.2297515869140625,-1.025970458984375,168397.006854375,-0.5984043074575346,0.08965158967199144,-0.1151534876383722,168397.006854375,-0.4559559504480616,0.009994046524187804,0.2346060940067971,-0.5091622471809387,0.002650152426213026,-0.1004333421587944,0.04258701950311661,-0.02123273909091949,0.2648700475692749,XArbitraryZVertical,0.1151261805452396,-0.02161611650233711,-0.2238826352944201,0.9675511726384468,0.009720107540488243,-0.2324598878622055,-0.9725574254989624,0,0,0,-1
2015-05-02 22:49:56.401,62,1430596196.187231,51.73556679864576,39.2678584065654,96.45135,0,9.84375,8,30,-9999,1430596196.306703,-22.1984748840332,-5.57135009765625,-41.68701171875,93.05427551269531,83.63085174560547,10,168397.155269375,0.0733642578125,-0.321441650390625,-1.159378051757812,168397.104389375,-0.05823694145341675,0.4514912922394224,0.1478286100008814,168397.104389375,-0.4526179943295826,0.03040389475788653,0.2010445994458875,0.03100334480404854,0.3644915521144867,0.1625484675168991,-0.07573113590478897,-0.03239318355917931,-0.1910350173711777,XArbitraryZVertical,0.1011766086619501,-0.00777587906216598,-0.2217370655860855,0.9698120969083316,0.02978692576289177,-0.1996929943561554,-0.9794056415557861,0,0,0,-1
2015-05-02 22:49:56.498,63,1430596196.187231,51.73556679864576,39.2678584065654,96.45135,0,9.84375,8,30,-9999,1430596196.425636,-21.13763046264648,-4.305191040039062,-42.78534698486328,91.41255187988281,81.98912811279297,10,168397.252650375,-0.0049285888671875,-0.1634674072265625,-1.153732299804688,168397.201923375,-0.1391618848654365,-0.06118133235460835,0.7977871887884969,168397.201923375,-0.3947389187110933,0.03842565215525152,0.2024836171478185,-0.04992333799600601,-0.1481793820858002,0.8125067353248596,0.06399217247962952,-0.08528938889503479,-0.2114605754613876,XArbitraryZVertical,0.1028364108997511,-0.001072805759543171,-0.1931464356446953,0.9757653283852604,0.03763135895133018,-0.2011028230190277,-0.9788470268249512,0,0,0,-1
2015-05-02 22:49:56.607,64,1430596196.187231,51.73556679864576,39.2678584065654,96.45135,0,9.84375,8,30,-9999,1430596196.544869,-21.68516731262207,-2.11505126953125,-42.6522216796875,86.74489593505859,77.32147216796875,10,168397.349972375,0.0103759765625,-0.010894775390625,-0.8504180908203125,168397.299487375,0.4702476694807415,0.09614437640960463,0.472249035039936,168397.299487375,-0.3305832293138043,0.007538619786110276,0.2037179013028807,0.5594844818115234,0.009148029610514641,0.4869683086872101,-0.04174545407295227,0.1879379600286484,-0.2229466438293457,XArbitraryZVertical,0.1009132845252672,-0.01303212796072981,-0.1633079320106423,0.9813140129385345,0.007382660172879696,-0.2023117393255234,-0.9792933464050293,0,0,0,-1
2015-05-02 22:49:56.693,65,1430596196.187231,51.73556679864576,39.2678584065654,96.45135,0,9.84375,8,30,-9999,1430596196.662854,-20.62431526184082,-5.502925872802734,-42.68550872802734,84.36676025390625,74.94333648681641,10,168397.447323375,0.1399078369140625,-0.0118560791015625,-0.9233551025390625,168397.397022375,-0.3058555290801123,0.3317361285535023,0.1650515390865329,168397.397022375,-0.2949773704962558,0.01381835180622625,0.2879411450679191,-0.2166204452514648,0.2447414696216583,0.1797705292701721,0.06919419765472412,0.2475254833698273,0.3581531047821045,XArbitraryZVertical,0.1429175047777037,-0.0143202083249682,-0.1444501886707479,0.9790320022627527,0.01324903685599566,-0.2839787304401398,-0.9587390422821045,0,0,0,-1
2015-05-02 22:49:56.790,66,1430596196.187231,51.73556679864576,39.2678584065654,96.45135,0,9.84375,8,30,-9999,1430596196.764849,-20.89808464050293,-2.696807861328125,-43.35118103027344,84.26872253417969,74.84529876708984,10,168397.544643375,0.0250091552734375,-0.17724609375,-0.7579345703125,168397.494556375,-0.08883080342402902,0.0123986127709729,0.2691553050460573,168397.494556375,-0.2687180605457197,0.0265877388525175,0.2242524830989213,0.0004770351224578917,-0.07460824400186539,0.2841642796993256,0.09068872034549713,0.1882589757442474,-0.174660712480545,XArbitraryZVertical,0.1126427582824049,-0.001896165861329072,-0.1316281826977305,0.9848766598316946,0.02591894380748272,-0.2223776280879974,-0.9746160507202148,0,0,0,-1
2015-05-02 22:49:56.887,67,1430596196.187231,51.73556679864576,39.2678584065654,96.45135,0,9.84375,8,30,-9999,1430596196.881356,-20.55587577819824,-0.09603118896484375,-43.95027923583984,80.70510101318359,71.28167724609375,10,168397.641994375,0.121490478515625,-0.2000885009765625,-1.117813110351562,168397.592121375,-0.6546428128289559,0.1014368764439191,0.3824650862617677,168397.592121375,-0.2334798860107648,0.02435609546281397,0.1991639485033974,-0.5653972625732422,0.01445110607892275,0.3974677920341492,0.003059490816667676,-0.05523239821195602,0.2483894824981689,XArbitraryZVertical,0.1001448520885385,0.0004561525561594643,-0.1146868907438228,0.9883408914016002,0.02387227118015289,-0.1978498697280884,-0.9799416065216064,0,0,0,-1
2015-05-02 22:49:56.985,68,1430596196.187231,51.73556679864576,39.2678584065654,96.45135,0,9.84375,8,30,-9999,1430596196.881356,-20.55587577819824,-0.09603118896484375,-43.95027923583984,80.70510101318359,71.28167724609375,10,168397.739346375,-0.013153076171875,-0.2401275634765625,-1.027618408203125,168397.689655375,0.1430836558866872,-0.1861744012724963,-0.001573129255909806,168397.689655375,-0.2040001232778635,0.008986147949010212,0.1778232993283821,0.2323298007249832,-0.273150622844696,0.01342733483761549,0.1026669070124626,-0.03731526434421539,-0.2284093946218491,XArbitraryZVertical,0.08878784047618744,-0.004589210919427816,-0.1010231702243947,0.9909036167077553,0.008844327181577682,-0.1768876165151596,-0.9841912984848022,0,0,0,-1
2015-05-02 22:49:57.088,69,1430596196.187231,51.73556679864576,39.2678584065654,96.45135,0,9.84375,8,30,-9999,1430596197.000349,-22.16425895690918,0.8963623046875,-43.38444519042969,79.81015014648438,70.38672637939453,10,168397.836665375,-0.0594635009765625,-0.15875244140625,-1.256256103515625,168397.787184375,-0.4580527885331597,-0.1004677521232393,-0.2647360555331798,168397.787184375,-0.2233564765896541,-0.01726116537517456,0.1647354763128583,-0.3687976598739624,-0.1874490529298782,-0.2497339397668839,-0.0494253933429718,-0.07175689935684204,-0.09089465439319611,XArbitraryZVertical,0.08080048218442644,-0.01771649109982388,-0.1117699131914294,0.9902852591688109,-0.01702663488686085,-0.163991391658783,-0.9863148331642151,0,0,0,-1
2015-05-02 22:49:57.180,70,1430596197.165762,51.73556679864576,39.2678584065654,96.46417,0,9.84375,8,30,-9999,1430596197.119267,-22.95133590698242,1.204353332519531,-43.95025634765625,81.23643493652344,71.81301116943359,10,168397.934014375,-0.0902557373046875,0.055755615234375,-0.7260894775390625,168397.884754375,1.061340534481573,-0.06931755580090944,-0.4876295892834707,168397.884754375,-0.2608755383634462,-0.01643265005803254,0.168097917009469,1.150593996047974,-0.1562971621751785,-0.4726277589797974,-0.01871181093156338,0.2883706092834473,-0.4268412292003632,XArbitraryZVertical,0.08216917742197238,-0.01903654093018247,-0.1302885789275096,0.9878819375776868,-0.01620029844343662,-0.1673073768615723,-0.985771656036377,0,0,0,-1
2015-05-02 22:49:57.277,71,1430596197.165762,51.73556679864576,39.2678584065654,96.46417,0,9.84375,8,30,-9999,1430596197.219407,-22.95133590698242,-2.628383636474609,-42.61891937255859,81.7740478515625,72.35062408447266,10,168398.031356375,-0.0350341796875,0.0005645751953125,-0.977508544921875,168397.982288375,-0.6628243100137883,0.1161838646641239,-0.5585503680606078,168397.982288375,-0.304157232366573,-0.02629113181586867,0.2493891141358391,-0.5735726952552795,0.02920594811439514,-0.5435488224029541,-0.1427990943193436,0.2196818888187408,0.4305967688560486,XArbitraryZVertical,0.1209496445191398,-0.03173240410817894,-0.1519198781390643,0.9804512168621164,-0.02547483704984188,-0.2468120157718658,-0.9687284827232361,0,0,0,-1
2015-05-02 22:49:57.374,72,1430596197.165762,51.73556679864576,39.2678584065654,96.46417,0,9.84375,8,30,-9999,1430596197.337819,-21.82204437255859,-2.936370849609375,-42.91846466064453,85.75423431396484,76.330810546875,10,168398.128687375,0.1103973388671875,-0.2297821044921875,-0.7767333984375,168398.079817375,-0.1634722845601159,0.1819924394127449,-0.2328020909020397,168398.079817375,-0.3458078060827337,0.00133263726611131,0.2123447771005154,-0.0742223709821701,0.0950162261724472,-0.2178008556365967,0.07056619226932526,0.09087954461574554,-0.0230565257370472,XArbitraryZVertical,0.1045068658329034,-0.01757929787658275,-0.1710053002733898,0.9795542203259302,0.001302705146372318,-0.2107525914907455,-0.9775385856628418,0,0,0,-1
2015-05-02 22:49:57.487,73,1430596197.165762,51.73556679864576,39.2678584065654,96.46417,0,9.84375,8,30,-9999,1430596197.456709,-21.92471122741699,-1.396430969238281,-42.55235290527344,86.40899658203125,76.98557281494141,10,168398.226057375,-0.112152099609375,-0.17132568359375,-1.191757202148438,168398.177356375,-0.4655447933117706,0.1049194922014157,0.1016043892764851,168398.177356375,-0.3539333126270384,-0.0005422475929091581,0.1817418837029709,-0.3762966096401215,0.01794497109949589,0.1166053414344788,0.01789781823754311,-0.03870886191725731,0.06649224460124969,XArbitraryZVertical,0.08928114608914513,-0.01624110248801785,-0.1753422851571461,0.9803163706573692,-0.0005333169247023761,-0.1807430386543274,-0.9835302233695984,0,0,0,-1
2015-05-02 22:49:57.569,74,1430596197.165762,51.73556679864576,39.2678584065654,96.46417,0,9.84375,8,30,-9999,1430596197.456709,-21.92471122741699,-1.396430969238281,-42.55235290527344,86.40899658203125,76.98557281494141,10,168398.323396375,0.0640411376953125,-0.2743072509765625,-1.081222534179688,168398.274921375,-0.03796629081627863,0.5267937699580669,0.4336358623948772,168398.274921375,-0.3342517687478733,0.01508046570548538,0.1712521316419598,0.05128003656864166,0.4398210346698761,0.4486365020275116,-0.07238494604825974,-0.08602291345596313,-0.1389769464731216,XArbitraryZVertical,0.08557720174886002,-0.006818140131964774,-0.1650989489302354,0.9825336597634159,0.01485930755734444,-0.1704162955284119,-0.9852601289749146,0,0,0,-1
2015-05-02 22:49:57.666,75,1430596197.165762,51.73556679864576,39.2678584065654,96.46417,0,9.84375,8,30,-9999,1430596197.575994,-20.14522171020508,-0.8488998413085938,-43.75056457519531,84.76557159423828,75.34214782714844,10,168398.420742375,0.068939208984375,0.1690673828125,-1.507965087890625,168398.372455375,-0.5088864084722651,-0.03961265700216561,0.64681658133354,168398.372455375,-0.2754157076298823,0.017504395921932,0.1516906613224383,-0.4196418225765228,-0.1265836954116821,0.6618168950080872,0.06369113922119141,-0.07925233989953995,-0.243171289563179,XArbitraryZVertical,0.07625041074220716,-0.001756831388115708,-0.1362162538947657,0.9877387916751981,0.0173025093972683,-0.151109591126442,-0.9883655905723572,0,0,0,-1
2015-05-02 22:49:57.764,76,1430596197.165762,51.73556679864576,39.2678584065654,96.46417,0,9.84375,8,30,-9999,1430596197.693651,-21.24029350280762,1.40966796875,-43.81712341308594,81.28664398193359,71.86322021484375,10,168398.518123375,0.095184326171875,-0.0789337158203125,-0.3993988037109375,168398.469989375,1.891643588599392,0.108355768955945,0.5084488511051651,168398.469989375,-0.2128100379360346,-0.003887456375750734,0.2470355716091928,1.980982661247253,0.02137009426951408,0.5236784815788269,0.02999928779900074,0.2930077910423279,0.1318656951189041,XArbitraryZVertical,0.1223020550938608,-0.01500277902684469,-0.1056331357697963,0.9867414882170077,-0.003769429866224527,-0.2445306032896042,-0.9696342349052429,0,0,0,-1
2015-05-02 22:49:57.861,77,1430596197.165762,51.73556679864576,39.2678584065654,96.46417,0,9.84375,8,30,-9999,1430596197.793746,-20.86386489868164,-1.772865295410156,-43.18472290039062,75.98745727539062,66.56403350830078,10,168398.615475375,0.0028533935546875,-0.0301055908203125,-1.109283447265625,168398.567554375,-0.9537144716643093,0.02679992268168539,0.1821674090963631,168398.567554375,-0.1782042305468469,-0.002011818130381666,0.2321034990388436,-0.8643770813941956,-0.0601840540766716,0.1973967403173447,0.08897874504327774,0.2393482476472855,0.05196385085582733,XArbitraryZVertical,0.1152431200236499,-0.01129878865674691,-0.08850168301569594,0.9893224008206221,-0.001957869390025735,-0.230025127530098,-0.973182737827301,0,0,0,-1
2015-05-02 22:49:57.968,78,1430596197.165762,51.73556679864576,39.2678584065654,96.46417,0,9.84375,8,30,-9999,1430596197.911555,-20.8980827331543,0.5199203491210938,-43.81710052490234,76.33608245849609,66.91265869140625,10,168398.712826375,0.0167388916015625,-0.20709228515625,-0.854766845703125,168398.665088375,-0.3187446961238777,0.1814808461673407,0.2632271084595409,168398.665088375,-0.1616534811858599,-0.007822465774090995,0.2134180995485742,-0.2294089943170547,0.09449855983257294,0.2784561216831207,-0.02555820718407631,0.0678197517991066,0.1429321765899658,XArbitraryZVertical,0.1058441365404191,-0.01247542906541873,-0.08069411731988624,0.9910246424078452,-0.007644916884601116,-0.211801677942276,-0.9772827625274658,0,0,0,-1
2015-05-02 22:49:58.056,79,1430596197.165762,51.73556679864576,39.2678584065654,96.46417,0,9.84375,8,30,-9999,1430596198.030761,-20.76120185852051,2.983833312988281,-44.14993286132812,74.15654754638672,64.73312377929688,10,168398.810176375,0.0300750732421875,-0.298095703125,-1.024703979492188,168398.762622375,-0.0805821945797266,0.02353595244968427,-0.146570532701928,168398.762622375,-0.1569249512541852,0.002032501601946846,0.1887216545998067,0.008762341924011707,-0.06339384615421295,-0.1313542425632477,0.08006535470485687,-0.02534825913608074,-0.06356405466794968,XArbitraryZVertical,0.09401023157807575,-0.006376597928831831,-0.07793779904167281,0.9924953978926134,0.001996412873268127,-0.1876033991575241,-0.9822428226470947,0,0,0,-1
2015-05-02 22:49:58.153,80,1430596197.165762,51.73556679864576,39.2678584065654,96.46417,0,9.84375,8,30,-9999,1430596198.149995,-21.82205009460449,2.675849914550781,-43.31787109375,74.57203674316406,65.14861297607422,10,168398.907527375,-0.05560302734375,-0.1961517333984375,-1.219833374023438,168398.860187375,-0.2103154239218466,-0.01665993683120869,-0.2106669611857371,168398.860187375,-0.1710251398923855,-0.006908369205109974,0.1990698113823693,-0.1209179982542992,-0.1035645976662636,-0.1954537928104401,-0.01774899289011955,-0.04426205530762672,-0.1195344030857086,XArbitraryZVertical,0.09871339130752094,-0.01191155767256426,-0.08532714394450711,0.9913793722267181,-0.006771881598979235,-0.1977576017379761,-0.9802275896072388,0,0,0,-1
2015-05-02 22:49:58.251,81,1430596198.17304,51.73556679864576,39.2678584065654,96.46448,0,9.84375,8,30,-9999,1430596198.149995,-21.82205009460449,2.675849914550781,-43.31787109375,74.57203674316406,65.14861297607422,10,168399.004895375,-0.0275726318359375,0.07958984375,-1.284332275390625,168398.957721375,-0.1076670754980505,0.04065927931056675,-0.5348996333679411,168398.957721375,-0.2101612052805061,-0.004992367591553132,0.1972573659007537,-0.01827139034867287,-0.04624368622899055,-0.519686758518219,-0.05670419707894325,0.103497102856636,-0.2792311012744904,XArbitraryZVertical,0.09766486336187506,-0.01279845140281062,-0.1046217038899055,0.9896221870902834,-0.00489553390070796,-0.1959806233644485,-0.9805955290794373,0,0,0,-1
2015-05-02 22:49:58.365,82,1430596198.17304,51.73556679864576,39.2678584065654,96.46448,0,9.84375,8,30,-9999,1430596198.268939,-21.24029350280762,0.9305801391601562,-43.35114288330078,76.78809356689453,67.36466979980469,10,168399.102261375,-0.0597381591796875,-0.0484619140625,-0.7168731689453125,168399.055255375,0.8031955363302298,0.1649380884240955,-0.3771126651029264,168399.055255375,-0.257737970876157,-0.0007384409503464986,0.3024152410252939,0.8925894498825073,0.07803682237863541,-0.3619000911712646,-0.07375796139240265,0.2974604964256287,0.2711022198200226,XArbitraryZVertical,0.1493361055210157,-0.01972009864585389,-0.1271013931510664,0.9803851697961662,-0.0007049303967505693,-0.2978267073631287,-0.9546197056770325,0,0,0,-1
2015-05-02 22:49:58.446,83,1430596198.17304,51.73556679864576,39.2678584065654,96.46448,0,9.84375,8,30,-9999,1430596198.3882,-21.10340690612793,-2.559951782226562,-43.48427581787109,78.57196807861328,69.14854431152344,10,168399.199611375,0.071746826171875,-0.1577301025390625,-0.80889892578125,168399.152820375,0.002317216464477945,0.2039571268192824,-0.2919753997947283,168399.152820375,-0.2966659738506293,0.01623321534390547,0.2695963212770641,0.09170941263437271,0.1170575469732285,-0.2767631411552429,0.04369527101516724,0.204910472035408,-0.09322482347488403,XArbitraryZVertical,0.1340988186624927,-0.01190627050862352,-0.1453653268994354,0.9801758359046122,0.01564615964889526,-0.2663423717021942,-0.963751494884491,0,0,0,-1
2015-05-02 22:49:58.542,84,1430596198.17304,51.73556679864576,39.2678584065654,96.46448,0,9.84375,8,30,-9999,1430596198.507118,-20.72697830200195,-2.320400238037109,-43.78382110595703,80.01163482666016,70.58821105957031,10,168399.296962375,0.02545166015625,-0.2653656005859375,-0.971954345703125,168399.250354375,-0.4925393930691407,0.2526596852541065,0.001593369280194408,168399.250354375,-0.3111384620097862,0.03394089413411575,0.2688783409480939,-0.4031489193439484,0.165761798620224,0.01680535078048706,0.0683591216802597,0.01096579898148775,0.263395220041275,XArbitraryZVertical,0.1350024183403184,-0.004151232328379767,-0.1512752233704648,0.9792205681595044,0.0327150970697403,-0.2656502425670624,-0.9635142087936401,0,0,0,-1
2015-05-02 22:49:58.640,85,1430596198.17304,51.73556679864576,39.2678584065654,96.46448,0,9.84375,8,30,-9999,1430596198.624496,-19.49502754211426,-0.7462310791015625,-43.98352813720703,77.81972503662109,68.39630126953125,10,168399.394344375,0.0231170654296875,-0.304931640625,-1.187164306640625,168399.347900375,-0.2418144943469768,0.335995854717084,0.3831127670388749,168399.347900375,-0.2875538497795802,0.04995852861899253,0.2357213988268021,-0.1524287313222885,0.2490877956151962,0.3983277380466461,-0.05227992311120033,-0.0431278683245182,-0.188977524638176,XArbitraryZVertical,0.1198923093260484,0.007704466017533489,-0.1393370154277763,0.9829301457883547,0.04855677857995033,-0.2335444986820221,-0.9711329340934753,0,0,0,-1
2015-05-02 22:49:58.737,86,1430596198.17304,51.73556679864576,39.2678584065654,96.46448,0,9.84375,8,30,-9999,1430596198.624496,-19.49502754211426,-0.7462310791015625,-43.98352813720703,77.81972503662109,68.39630126953125,10,168399.491695375,0.09368896484375,-0.129241943359375,-1.313644409179688,168399.445436375,-0.3573565371883916,0.2030884036716986,0.8278769143647572,168399.445436375,-0.2185249256190274,0.05438417642009433,0.2268167893873471,-0.2678957879543304,0.116159088909626,0.8432733416557312,0.01467708591371775,-0.06728304922580719,-0.1934657841920853,XArbitraryZVertical,0.115394792210139,0.01451740422436159,-0.1052461712431602,0.9876216534402261,0.05296512693166733,-0.2248769849538803,-0.9729465842247009,0,0,0,-1
2015-05-02 22:49:58.846,87,1430596198.17304,51.73556679864576,39.2678584065654,96.46448,0,9.84375,8,30,-9999,1430596198.743807,-17.8524341583252,1.512351989746094,-45.58111572265625,72.30538177490234,62.8819580078125,10,168399.589076375,0.036651611328125,-0.0531158447265625,-0.6037139892578125,168399.542987375,1.51704228440441,0.03299150590001061,0.6125813792044624,168399.542987375,-0.1552307764702885,0.03253888086481038,0.258152313924578,1.606501340866089,-0.05393611267209053,0.6279774904251099,-0.004431784152984619,0.314254492521286,-0.2661924064159393,XArbitraryZVertical,0.1295644845835107,0.006105664317507755,-0.07479451757121171,0.9887272350548083,0.03145509958267212,-0.255294531583786,-0.9663515090942383,0,0,0,-1
2015-05-02 22:49:58.932,88,1430596198.17304,51.73556679864576,39.2678584065654,96.46448,0,9.84375,8,30,-9999,1430596198.863083,-17.68132400512695,-1.327964782714844,-44.14994049072266,68.38957977294922,58.96615219116211,10,168399.686428375,0.1488800048828125,0.03289794921875,-1.159194946289062,168399.640521375,-1.302147022355954,0.4415555708445548,0.3871775498106629,168399.640521375,-0.1030040576822062,0.04437609781740617,0.324789451210006,-1.212689757347107,0.3546296358108521,0.4025734066963196,0.1680865585803986,0.198259636759758,0.3693313300609589,XArbitraryZVertical,0.1625548653447118,0.013544076372508,-0.04720708812854098,0.9854765165027463,0.04204222187399864,-0.3191092610359192,-0.9467849731445312,0,0,0,-1
2015-05-02 22:49:59.029,89,1430596198.17304,51.73556679864576,39.2678584065654,96.46448,0,9.84375,8,30,-9999,1430596198.981727,-17.09957504272461,1.23858642578125,-45.51454162597656,66.77068328857422,57.34725570678711,10,168399.783940625,-0.106292724609375,-0.2133026123046875,-0.6293182373046875,168399.738086375,0.1803751016827398,-0.07735071491302445,0.1840819556040211,168399.738086375,-0.07772602300939173,0.03860842288948503,0.284342711383037,0.2698306441307068,-0.1642749458551407,0.19947749376297,0.004332892131060362,0.1733336299657822,0.01770944893360138,XArbitraryZVertical,0.1423019440026319,0.01358962898352136,-0.03572102563975078,0.9890851768398875,0.03704894334077835,-0.2805266082286835,-0.9591309428215027,0,0,0,-1
2015-05-02 22:49:59.127,90,1430596198.17304,51.73556679864576,39.2678584065654,96.46448,0,9.84375,8,30,-9999,1430596199.101186,-17.44178009033203,3.086509704589844,-46.37990570068359,64.65934753417969,55.23592376708984,10,168399.881290625,0.1025238037109375,-0.2779541015625,-1.116592407226562,168399.835750625,-0.6830576763956653,0.09061006134831096,-0.1261318366000058,168399.835750625,-0.06119204074741866,0.03003975398374066,0.2471214947077939,-0.5936038494110107,0.003687525866553187,-0.1107365936040878,-0.08710618317127228,0.02680996432900429,0.1389676481485367,XArbitraryZVertical,0.123630960919007,0.01112798906870392,-0.02850438492206703,0.9918563673242861,0.02912278287112713,-0.244613915681839,-0.969183087348938,0,0,0,-1
2015-05-02 22:49:59.224,91,1430596199.165904,51.73556679864576,39.2678584065654,96.46844,0,9.84375,8,10,-9999,1430596199.220267,-18.46840286254883,3.907821655273438,-46.71274566650391,65.63274383544922,56.20931625366211,10,168399.978642625,0.0511932373046875,-0.255096435546875,-1.183151245117188,168399.933284625,-0.00246795138217643,-0.1485902740726441,-0.2496774774654358,168399.933284625,-0.08120814704998157,0.0238352815943199,0.2302982081808589,0.08698409795761108,-0.2355111092329025,-0.2342825382947922,0.1022234484553337,-0.09985712915658951,-0.1994534432888031,XArbitraryZVertical,0.1152725106393471,0.007165096160338984,-0.03895311962045126,0.9925439860075393,0.02320379391312599,-0.2282678633928299,-0.973321795463562,0,0,0,-1
2015-05-02 22:49:59.325,92,1430596199.165904,51.73556679864576,39.2678584065654,96.46844,0,9.84375,8,10,-9999,1430596199.220267,-18.46840286254883,3.907821655273438,-46.71274566650391,65.63274383544922,56.20931625366211,10,168400.075992625,-0.0076751708984375,-0.081756591796875,-1.248580932617188,168400.030830625,0.01462395017784311,-0.006922887253660979,-0.4266706308798839,168400.030830625,-0.1119356869227365,0.01842002897679835,0.236973161151917,0.1040742546319962,-0.0938420295715332,-0.4112760126590729,0.02469830773770809,-0.02497364953160286,-0.1790976077318192,XArbitraryZVertical,0.1185310139790845,0.00251879225309779,-0.05445707781296825,0.9914527124814039,0.01790423132479191,-0.2347614616155624,-0.9718881249427795,0,0,0,-1
2015-05-02 22:49:59.419,93,1430596199.165904,51.73556679864576,39.2678584065654,96.46844,0,9.84375,8,10,-9999,1430596199.339278,-18.36574554443359,1.751899719238281,-46.61288452148438,68.75271606445312,59.32928848266602,10,168400.173343625,-0.102294921875,-0.0080108642578125,-0.6672515869140625,168400.128383625,1.223981646465475,-0.3038549624692447,-0.612936112261661,168400.128383625,-0.1668314183199945,0.006292818396851996,0.27283820022912,1.313430190086365,-0.3907724320888519,-0.5975417494773865,-0.02710187621414661,0.3424790501594543,-0.2153538167476654,XArbitraryZVertical,0.135782542694658,-0.008224692507339355,-0.08211809676950663,0.9872953325704886,0.006060007028281689,-0.2694657444953918,-0.962990939617157,0,0,0,-1
2015-05-02 22:49:59.515,94,1430596199.165904,51.73556679864576,39.2678584065654,96.46844,0,9.84375,8,10,-9999,1430596199.439558,-19.28970146179199,-2.799465179443359,-44.848876953125,71.81040954589844,62.38698577880859,10,168400.270691625,0.053741455078125,-0.04888916015625,-1.037124633789062,168400.225918625,-1.162257828196817,0.05852403021892729,-0.4646744722675327,168400.225918625,-0.220526220785666,-0.0003758279333279297,0.2908407056073912,-1.072811007499695,-0.02839171886444092,-0.4492804408073425,-0.05678411945700645,0.2164299637079239,0.2238722145557404,XArbitraryZVertical,0.1440078937925792,-0.01613049042814061,-0.1089054188355303,0.9834333447429037,-0.0003600443305913359,-0.2867577373981476,-0.958003044128418,0,0,0,-1
2015-05-02 22:49:59.613,95,1430596199.165904,51.73556679864576,39.2678584065654,96.46844,0,9.84375,8,10,-9999,1430596199.55767,-19.70035171508789,-2.183486938476562,-46.44647216796875,76.61495971679688,67.19153594970703,10,168400.368045625,0.102752685546875,-0.220458984375,-0.79083251953125,168400.323476625,-0.0279461472148555,0.293378086740873,-0.09293100623831502,168400.323476625,-0.2457566197478253,0.02544549533101746,0.2588556046537939,0.06149892508983612,0.2064640372991562,-0.07753726094961166,0.07538049668073654,0.1369711607694626,0.05806067585945129,XArbitraryZVertical,0.129629549561982,-0.003297475573917664,-0.119904641962168,0.9842805409897653,0.02459508739411831,-0.2559744417667389,-0.9663706421852112,0,0,0,-1
2015-05-02 22:49:59.728,96,1430596199.165904,51.73556679864576,39.2678584065654,96.46844,0,9.84375,8,10,-9999,1430596199.675502,-17.88665390014648,-1.533294677734375,-47.078857421875,77.05897521972656,67.63555145263672,10,168400.465424625,0.0244293212890625,-0.229034423828125,-1.104095458984375,168400.421016625,-0.5540690668943314,0.2876032882331452,0.09306682745390905,168400.421016625,-0.2386133115283658,0.04271693091817543,0.2363788613348269,-0.4646216034889221,0.2006973177194595,0.108458623290062,0.01837430149316788,-0.0002065326261799783,0.06711543351411819,XArbitraryZVertical,0.119573792621121,0.007025664075358048,-0.1156661441488831,0.9860395992353523,0.04151644557714462,-0.2341837286949158,-0.9713054895401001,0,0,0,-1
2015-05-02 22:49:59.808,97,1430596199.165904,51.73556679864576,39.2678584065654,96.46844,0,9.84375,8,10,-9999,1430596199.794635,-15.52541351318359,0.5541839599609375,-48.31033325195312,75.52168273925781,66.09825897216797,10,168400.562779625,0.117706298828125,-0.2291259765625,-1.160751342773438,168400.518551625,-0.2629695807821302,0.6951332477264116,0.6302850088668731,168400.518551625,-0.2052372019714891,0.0734699529938416,0.20304949717631,-0.1734648793935776,0.608195960521698,0.6458188891410828,0.04368944838643074,-0.01925963535904884,-0.2177814394235611,XArbitraryZVertical,0.1044921037320144,0.02597019818688954,-0.09813967078838361,0.9893308617855415,0.07189587503671646,-0.2016571164131165,-0.9768139123916626,0,0,0,-1
2015-05-02 22:49:59.906,98,1430596199.165904,51.73556679864576,39.2678584065654,96.46844,0,9.84375,8,10,-9999,1430596199.794635,-15.52541351318359,0.5541839599609375,-48.31033325195312,75.52168273925781,66.09825897216797,10,168400.660131625,0.0838165283203125,0.11444091796875,-1.225433349609375,168400.616115625,-0.3758247603997641,0.1950461898118773,0.4783042644104492,168400.616115625,-0.1379717561872857,0.08689022612392008,0.1899589520052873,-0.2863217890262604,0.1081105694174767,0.493837833404541,0.004562799818813801,0.04376853629946709,-0.1748757213354111,XArbitraryZVertical,0.0975021731750767,0.03660181613249967,-0.06444664008518183,0.9924717949965395,0.08521991223096848,-0.1888185888528824,-0.9783072471618652,0,0,0,-1
2015-05-02 22:50:00.003,99,1430596199.165904,51.73556679864576,39.2678584065654,96.46844,0,9.84375,8,10,-9999,1430596199.913626,-14.53300666809082,1.888801574707031,-47.14541625976562,74.97489166259766,65.55146789550781,10,168400.757480625,0.1296234130859375,-0.0759429931640625,-0.671661376953125,168400.713649625,1.002125147643661,0.1743204049444446,0.365671725059946,168400.713649625,-0.1048866082974056,0.08506197002085447,0.2607191559643262,1.091626405715942,0.08738648146390915,0.3812049627304077,0.01082255411893129,0.2436610907316208,0.1408425569534302,XArbitraryZVertical,0.1319044329938131,0.03529159270924148,-0.04640813500387077,0.9895463652836438,0.08208820968866348,-0.2577754557132721,-0.9627114534378052,0,0,0,-1
2015-05-02 22:50:00.101,100,1430596199.165904,51.73556679864576,39.2678584065654,96.46844,0,9.84375,8,10,-9999,1430596200.017508,-14.39612197875977,-1.054191589355469,-46.94570922851562,72.26852416992188,62.84510040283203,10,168400.854843625,0.08819580078125,-0.072235107421875,-0.96759033203125,168400.811184625,-0.5890374372715079,-0.2184377989304793,-0.1220436180106252,168400.811184625,-0.0861511448392063,0.07903829515599979,0.2389987418358401,-0.4995379447937012,-0.3053700029850006,-0.1065106689929962,0.0598696805536747,0.2623036801815033,-0.02262283302843571,XArbitraryZVertical,0.1207007912858415,0.03406104947053662,-0.03801608289653169,0.9913757820993628,0.0767117440700531,-0.2367299497127533,-0.9685423374176025,0,0,0,-1
2015-05-02 22:50:00.207,101,1430596200.1647,51.73556679864576,39.2678584065654,96.50262,0,9.84375,6,10,-9999,1430596200.132391,-15.42274856567383,-0.6435317993164062,-47.01227569580078,76.08717346191406,66.66374969482422,10,168400.952183625,0.100433349609375,-0.2155303955078125,-0.8962554931640625,168400.908748625,-0.2552738441801283,0.08043944914529835,0.2125442234381339,168400.908748625,-0.08324107195688012,0.05364577408162145,0.2256672677254784,-0.1657761186361313,-0.006491078995168209,0.2280768603086472,-0.0191794577986002,0.05609318614006042,0.1573096811771393,XArbitraryZVertical,0.1135652204194763,0.02194284737124806,-0.03831193306232641,0.9925490657621554,0.05226051062345505,-0.2237567603588104,-0.9732428789138794,0,0,0,-1
2015-05-02 22:50:00.295,102,1430596200.1647,51.73556679864576,39.2678584065654,96.50262,0,9.84375,6,10,-9999,1430596200.251645,-16.17561149597168,0.9306259155273438,-47.14539337158203,74.72676086425781,65.30333709716797,10,168401.049523625,0.1207427978515625,-0.2298431396484375,-1.072418212890625,168401.006282625,-0.01463966282827458,-0.1940696086401452,-0.1204334708155633,168401.006282625,-0.07661884686893668,0.04080149247306675,0.2124521912693076,0.07485183328390121,-0.2809455692768097,-0.1049160435795784,0.07002072036266327,-0.008228103630244732,-0.05398218706250191,XArbitraryZVertical,0.1067034843368761,0.01620949049529484,-0.03591496185454372,0.9935098058716996,0.03987307846546173,-0.2108575850725174,-0.9767032265663147,0,0,0,-1
2015-05-02 22:50:00.393,103,1430596200.1647,51.73556679864576,39.2678584065654,96.50262,0,9.84375,6,10,-9999,1430596200.370841,-16.79158401489258,-0.09600067138671875,-46.479736328125,76.27250671386719,66.84908294677734,10,168401.146857625,0.070892333984375,-0.151092529296875,-1.216400146484375,168401.103817625,-0.2390677099986691,0.1272290589691185,-0.4174427777027593,168401.103817625,-0.104801460346864,0.04569855447064381,0.2131653921912911,-0.1495856791734695,0.0403832346200943,-0.401934027671814,0.033476322889328,0.0139686418697238,-0.1604034751653671,XArbitraryZVertical,0.107397142750586,0.01711602065280763,-0.04963876157453763,0.9928287309074774,0.044648677110672,-0.2115547060966492,-0.9763457775115967,0,0,0,-1
2015-05-02 22:50:00.489,104,1430596200.1647,51.73556679864576,39.2678584065654,96.50262,0,9.84375,6,10,-9999,1430596200.370841,-16.79158401489258,-0.09600067138671875,-46.479736328125,76.27250671386719,66.84908294677734,10,168401.244205625,-0.023040771484375,0.06024169921875,-1.026168823242188,168401.201381625,0.1407709667960624,-0.1692082009159285,-0.4901753049694774,168401.201381625,-0.1462291484016198,0.04694220810201496,0.2015156573288879,0.2302512526512146,-0.2560523450374603,-0.4746668636798859,-0.03607245907187462,0.1874592304229736,-0.2580550611019135,XArbitraryZVertical,0.1019967608023185,0.01594170370755743,-0.07030456661874034,0.9921692349500003,0.04597541317343712,-0.2001545429229736,-0.9786850214004517,0,0,0,-1
2015-05-02 22:50:00.589,105,1430596200.1647,51.73556679864576,39.2678584065654,96.50262,0,9.84375,6,10,-9999,1430596200.49056,-17.30489730834961,-0.9515151977539062,-45.78077697753906,80.19950866699219,70.77608489990234,10,168401.341556625,-0.064361572265625,-0.025299072265625,-0.880859375,168401.298898625,-0.09829967267980576,0.05636207604600096,-0.5200948545520816,168401.298898625,-0.1957418807799269,0.04122147171866691,0.283097696197094,-0.008821140043437481,-0.03048036806285381,-0.5045867562294006,-0.1055331751704216,0.2153970450162888,0.35442915558815,XArbitraryZVertical,0.1423653824263268,0.006523173087724191,-0.09382337182468437,0.9853358417305758,0.0395694337785244,-0.279331386089325,-0.9593790769577026,0,0,0,-1
2015-05-02 22:50:00.687,106,1430596200.1647,51.73556679864576,39.2678584065654,96.50262,0,9.84375,6,10,-9999,1430596200.608559,-17.92087173461914,-4.647354125976562,-45.31481170654297,83.20508575439453,73.78166198730469,10,168401.438907625,0.0977783203125,-0.133056640625,-0.8365478515625,168401.396435625,0.1880226350690113,0.2154563900901356,-0.2090437645013338,168401.396435625,-0.2489058657123986,0.04944318779560965,0.2218169888322518,0.2774994075298309,0.1286156326532364,-0.1935359239578247,0.06560315936803818,0.2212841957807541,-0.2175263017416,XArbitraryZVertical,0.1128412347610819,0.01064231263063993,-0.120616768896534,0.9862074791748475,0.04821214824914932,-0.2200024574995041,-0.9743071794509888,0,0,0,-1
2015-05-02 22:50:00.782,107,1430596200.1647,51.73556679864576,39.2678584065654,96.50262,0,9.84375,6,10,-9999,1430596200.725874,-16.96269035339355,-3.278530120849609,-45.1151123046875,84.88658905029297,75.46316528320312,10,168401.536258625,-0.017425537109375,-0.1568145751953125,-1.027999877929688,168401.493996625,-0.6596301146023472,0.02707529353839958,-0.04013010920196801,168401.493996625,-0.250326972896541,0.05880090019321715,0.2193353849340199,-0.5701029896736145,-0.05979573354125023,-0.0245173554867506,-0.002015469362959266,0.01135844457894564,0.2007042765617371,XArbitraryZVertical,0.1121925721744606,0.01533379204696044,-0.1208411735923794,0.98619222889614,0.05735909566283226,-0.2175809741020203,-0.9743553996086121,0,0,0,-1
2015-05-02 22:50:00.879,108,1430596200.1647,51.73556679864576,39.2678584065654,96.50262,0,9.84375,6,10,-9999,1430596200.845942,-17.40755844116211,-1.875465393066406,-46.14688110351562,85.57126617431641,76.14784240722656,10,168401.633609625,0.09637451171875,-0.1716766357421875,-1.140121459960938,168401.591535625,-0.04831187270290944,0.2949112685804317,0.08017606251348951,168401.591535625,-0.2586247567988433,0.05505252723695497,0.1962571146589426,0.0412113144993782,0.2080332636833191,0.09579052031040192,-0.08526420593261719,0.01909635029733181,-0.122123047709465,XArbitraryZVertical,0.1006484174985447,0.01453287628264655,-0.1256093948785529,0.9868540781089253,0.05396842956542969,-0.1949996650218964,-0.9793173670768738,0,0,0,-1
2015-05-02 22:50:00.976,109,1430596200.1647,51.73556679864576,39.2678584065654,96.50262,0,9.84375,6,10,-9999,1430596200.964097,-17.20223808288574,-1.259498596191406,-45.880615234375,84.19327545166016,74.76985168457031,10,168401.730960625,0.0586090087890625,0.0139617919921875,-1.285797119140625,168401.689081625,-0.4469181120155383,-0.06228920736808132,0.659722259976064,168401.689081625,-0.2024880874951373,0.0608191605411148,0.1932343729669459,-0.35739666223526,-0.1491655111312866,0.6753364205360413,0.04088973999023438,-0.005948718637228012,-0.1717323958873749,XArbitraryZVertical,0.09898730446898447,0.02036260136814571,-0.09763523277975193,0.9900778955918119,0.05965042114257812,-0.1920340657234192,-0.9795737266540527,0,0,0,-1
2015-05-02 22:50:01.087,110,1430596200.1647,51.73556679864576,39.2678584065654,96.50262,0,9.84375,6,10,-9999,1430596201.084154,-17.51022529602051,-2.799446105957031,-44.71568298339844,82.45723724365234,73.0338134765625,10,168401.828294625,0.0313568115234375,-0.06011962890625,-0.5717926025390625,168401.786643625,1.167664045209678,0.1169292834532371,0.3410987376817848,168401.786643625,-0.1629014266083537,0.03716143810842777,0.2201613399968231,1.257183790206909,0.03005467168986797,0.3567125797271729,0.001478887745179236,0.3017305731773376,-0.1060035303235054,XArbitraryZVertical,0.110977874540365,0.009469349596982183,-0.07881990165438801,0.9906470945214982,0.0362560972571373,-0.2183870673179626,-0.9751884937286377,0,0,0,-1
2015-05-02 22:50:01.171,111,1430596201.157431,51.73556679864576,39.2678584065654,96.47272,0,9.84375,8,10,-9999,1430596201.084154,-17.51022529602051,-2.799446105957031,-44.71568298339844,82.45723724365234,73.0338134765625,10,168401.925662625,0.1296539306640625,0.130218505859375,-1.279693603515625,168401.884186625,-1.307816892316733,0.0979851533550674,0.1360707537881816,168401.884186625,-0.1353802055849169,0.04350183833666206,0.249327186489839,-1.21829891204834,0.01111223641782999,0.1516842991113663,0.06308120489120483,0.09349273145198822,0.3076393902301788,XArbitraryZVertical,0.125486512211692,0.0131227632945648,-0.06439951951085782,0.9899159712941351,0.04214340820908546,-0.2467520087957382,-0.9681618809700012,0,0,0,-1
2015-05-02 22:50:01.268,112,1430596201.157431,51.73556679864576,39.2678584065654,96.47272,0,9.84375,8,10,-9999,1430596201.202328,-18.02353668212891,-1.12261962890625,-46.01373291015625,81.70842742919922,72.28500366210938,10,168402.023014625,0.027435302734375,-0.174957275390625,-0.6354217529296875,168401.981716625,0.4490441135137486,0.02073217645404885,0.1379219170618957,168401.981716625,-0.1303507325178178,0.02763630434208078,0.2147965608349311,0.5385603308677673,-0.06613904982805252,0.1535351574420929,0.06896474212408066,0.2030626088380814,-0.1377484500408173,XArbitraryZVertical,0.10784889137458,0.006728269104964277,-0.06326979699759767,0.9921291648832772,0.02699777856469154,-0.2131486684083939,-0.9766467213630676,0,0,0,-1
2015-05-02 22:50:01.366,113,1430596201.157431,51.73556679864576,39.2678584065654,96.47272,0,9.84375,8,10,-9999,1430596201.321469,-18.6395092010498,-0.7119674682617188,-45.21493530273438,80.39114379882812,70.96772003173828,10,168402.120366625,0.0844879150390625,-0.1343841552734375,-1.126922607421875,168402.079281625,-0.5201126977313851,-0.05527790316622971,0.1069179282834112,168402.079281625,-0.103308328494327,0.02681945876724073,0.1915080945568634,-0.4305982291698456,-0.1421474367380142,0.1225308626890182,0.008601371198892593,0.02235562540590763,0.1155815646052361,XArbitraryZVertical,0.0961608526007711,0.008394196553183029,-0.05010973183603105,0.9940682283760109,0.02632599696516991,-0.1903396397829056,-0.9813652634620667,0,0,0,-1
2015-05-02 22:50:01.463,114,1430596201.157431,51.73556679864576,39.2678584065654,96.47272,0,9.84375,8,10,-9999,1430596201.440573,-18.19463729858398,0.4173202514648438,-44.05001831054688,79.72147369384766,70.29804992675781,10,168402.217717625,-0.0033416748046875,-0.13006591796875,-1.057373046875,168402.176815625,0.09832257586518044,-0.2207395690606348,-0.3408188394512175,168402.176815625,-0.1105292567417634,0.008383511650734766,0.1785426401465564,0.1877818256616592,-0.3075917661190033,-0.3252150416374207,0.05028256773948669,0.04514928162097931,-0.178711786866188,XArbitraryZVertical,0.08924651819118215,-0.0007557673858412078,-0.05464292897673462,0.9945092448636333,0.008250147104263306,-0.1775955706834793,-0.9840689897537231,0,0,0,-1
2015-05-02 22:50:01.568,115,1430596201.157431,51.73556679864576,39.2678584065654,96.47272,0,9.84375,8,10,-9999,1430596201.559559,-19.46081161499023,0.314666748046875,-43.75045776367188,82.80004119873047,73.37661743164062,10,168402.315051625,0.033233642578125,0.167449951171875,-1.37896728515625,168402.274349625,-0.6860316283849568,0.06906695234233298,-0.6125914992166047,168402.274349625,-0.1569135471591315,0.0051545493718465,0.1540888144821159,-0.5965929627418518,-0.01778465323150158,-0.5969896912574768,-0.005749582778662443,0.03626175597310066,-0.1321616321802139,XArbitraryZVertical,0.07693258622109937,-0.003470742186165913,-0.07794579177396993,0.9939787646980798,0.005093454848974943,-0.1534797698259354,-0.9881386756896973,0,0,0,-1
2015-05-02 22:50:01.658,116,1430596201.157431,51.73556679864576,39.2678584065654,96.47272,0,9.84375,8,10,-9999,1430596201.559559,-19.46081161499023,0.314666748046875,-43.75045776367188,82.80004119873047,73.37661743164062,10,168402.412418625,-0.05279541015625,-0.10955810546875,-0.547637939453125,168402.371914625,1.454498745152226,0.02768728795689979,-0.07960028708581439,168402.371914625,-0.1945918627182921,0.01028728791623437,0.2253380559126307,1.543935656547546,-0.05916262045502663,-0.06399881094694138,-0.01712237112224102,0.2616286277770996,0.06237457320094109,XArbitraryZVertical,0.1123940758178141,-0.00583482846928607,-0.09594972559539278,0.989003122672494,0.01002703420817852,-0.2234358787536621,-0.9746670722961426,0,0,0,-1
