loggingTime,loggingSample,locationTimestamp_since1970,locationLatitude,locationLongitude,locationAltitude,locationSpeed,locationCourse,locationVerticalAccuracy,locationHorizontalAccuracy,locationFloor,locationHeadingTimestamp_since1970,locationHeadingX,locationHeadingY,locationHeadingZ,locationTrueHeading,locationMagneticHeading,locationHeadingAccuracy,accelerometerTimestamp_sinceReboot,accelerometerAccelerationX,accelerometerAccelerationY,accelerometerAccelerationZ,gyroTimestamp_sinceReboot,gyroRotationX,gyroRotationY,gyroRotationZ,motionTimestamp_sinceReboot,motionYaw,motionRoll,motionPitch,motionRotationRateX,motionRotationRateY,motionRotationRateZ,motionUserAccelerationX,motionUserAccelerationY,motionUserAccelerationZ,motionAttitudeReferenceFrame,motionQuaternionX,motionQuaternionY,motionQuaternionZ,motionQuaternionW,motionGravityX,motionGravityY,motionGravityZ,motionMagneticFieldX,motionMagneticFieldY,motionMagneticFieldZ,motionMagneticFieldCalibrationAccuracy
2015-06-06 10:59:43.198,1,1433577582.742747,51.73538937348348,39.26756706136467,92.19784,-1,-1,17.15314215077026,65,-9999,1433577583.17791,5.958041191101074,-23.95940399169922,-39.45574951171875,198.3276977539062,188.8935089111328,25,113431.532559375,0.0656585693359375,-0.1976165771484375,-1.013412475585938,113431.526139375,-0.05396656264547469,-0.06255712137374329,0.07513363330553348,113431.504441375,-0.08518264839021117,0.1066836985181235,0.1876000540471048,-0.1784379631280899,-0.3070962727069855,0.2530282437801361,0.04048263281583786,-0.01167955622076988,0.00178670056629926,XArbitraryZVertical,0.09570465606722253,0.04905170523937388,-0.03734174355817842,0.9934989397116634,0.1046131923794746,-0.1865015923976898,-0.9768691062927246,0,0,0,-1
2015-06-06 10:59:43.206,2,1433577582.742747,51.73538937348348,39.26756706136467,92.19784,-1,-1,17.15314215077026,65,-9999,1433577583.198354,5.958041191101074,-23.89096069335938,-39.38919067382812,198.6942443847656,189.2600555419922,25,113431.542263375,0.0451202392578125,-0.16632080078125,-1.012191772460938,113431.536973375,-0.05933656066751047,0.01901124175763965,-0.04078205103681941,113431.526139375,-0.08155818565561242,0.1011249146251228,0.1872133252692979,0.03323288261890411,-0.1528658270835876,0.08513879776000977,0.009774339385330677,-0.03696185722947121,-0.01399364601820707,XArbitraryZVertical,0.09532438076536266,0.04647212256779038,-0.03581730740330294,0.9937156156296034,0.0991886705160141,-0.1861216425895691,-0.9775072336196899,0,0,0,-1
2015-06-06 10:59:43.208,3,1433577582.742747,51.73538937348348,39.26756706136467,92.19784,-1,-1,17.15314215077026,65,-9999,1433577583.198354,5.958041191101074,-23.89096069335938,-39.38919067382812,198.6942443847656,189.2600555419922,25,113431.551998375,0.03302001953125,-0.169769287109375,-0.98431396484375,113431.547807375,-0.1966936212622003,-0.07059773733691052,-0.1271712683734638,113431.526139375,-0.08155818565561242,0.1011249146251228,0.1872133252692979,0.03323288261890411,-0.1528658270835876,0.08513879776000977,0.009774339385330677,-0.03696185722947121,-0.01399364601820707,XArbitraryZVertical,0.09532438076536266,0.04647212256779038,-0.03581730740330294,0.9937156156296034,0.0991886705160141,-0.1861216425895691,-0.9775072336196899,0,0,0,-1
2015-06-06 10:59:43.226,4,1433577582.742747,51.73538937348348,39.26756706136467,92.19784,-1,-1,17.15314215077026,65,-9999,1433577583.217206,5.478948593139648,-23.61719512939453,-39.52230834960938,197.9045867919922,188.4703979492188,25,113431.561729375,0.0408935546875,-0.152801513671875,-0.925689697265625,113431.558640375,-0.3804346922466912,-0.2132952348655363,-0.2194905465093876,113431.547807375,-0.08263791586333336,0.09906662185072281,0.1867585268582772,-0.1094944477081299,-0.1609061360359192,-0.1171661242842674,-0.05206459015607834,0.0193539671599865,-0.03439834341406822,XArbitraryZVertical,0.09508609973221971,0.04540836126227484,-0.03646396015614688,0.9937641037866684,0.09718482941389084,-0.1856747716665268,-0.9777934551239014,0,0,0,-1
2015-06-06 10:59:43.227,5,1433577582.742747,51.73538937348348,39.26756706136467,92.19784,-1,-1,17.15314215077026,65,-9999,1433577583.217206,5.478948593139648,-23.61719512939453,-39.52230834960938,197.9045867919922,188.4703979492188,25,113431.571468375,0.0457305908203125,-0.152496337890625,-0.90606689453125,113431.569474375,-0.5317120958592253,-0.3462546175521783,-0.300334796140378,113431.558640375,-0.08439631352262163,0.09646116958644471,0.1838440267463004,-0.293235719203949,-0.3036034405231476,-0.2094854265451431,-0.06166860833764076,0.01304087601602077,-0.005736166145652533,XArbitraryZVertical,0.09362951644398512,0.04409778024333585,-0.03753712768128712,0.9939214573966673,0.09468862414360046,-0.1828101575374603,-0.9785777926445007,0,0,0,-1
2015-06-06 10:59:43.235,6,1433577582.742747,51.73538937348348,39.26756706136467,92.19784,-1,-1,17.15314215077026,65,-9999,1433577583.217206,5.478948593139648,-23.61719512939453,-39.52230834960938,197.9045867919922,188.4703979492188,25,113431.581174375,0.0239105224609375,-0.19305419921875,-0.8859100341796875,113431.580301375,-0.6896415432425592,-0.5165651008432905,-0.392458065620072,113431.569474375,-0.08693858567933435,0.09254987513746467,0.179209927472867,-0.4445133209228516,-0.4365626275539398,-0.2903296947479248,-0.05004416778683662,0.0254506953060627,0.05408399179577827,XArbitraryZVertical,0.09130699391108868,0.04214485382808189,-0.03909940547810323,0.9941619991983144,0.09093772619962692,-0.1782522052526474,-0.9797737002372742,0,0,0,-1
2015-06-06 10:59:43.244,7,1433577582.742747,51.73538937348348,39.26756706136467,92.19784,-1,-1,17.15314215077026,65,-9999,1433577583.237428,4.965636730194092,-23.37764739990234,-39.35589599609375,196.8859558105469,187.4517669677734,25,113431.590908375,0.009674072265625,-0.2043609619140625,-0.8974151611328125,113431.591142375,-0.847969399524969,-0.6699682396379258,-0.4577899345335688,113431.580301375,-0.0903239603142378,0.08705714669273683,0.1727613271125384,-0.6024429202079773,-0.6068729162216187,-0.3824529647827148,-0.0399223193526268,0.01940688490867615,0.07531624287366867,XArbitraryZVertical,0.08806090034281382,0.03941712215325186,-0.04118535740004266,0.9944824456207358,0.0856529101729393,-0.1719032227993011,-0.9813831448554993,0,0,0,-1
2015-06-06 10:59:43.255,8,1433577582.742747,51.73538937348348,39.26756706136467,92.19784,-1,-1,17.15314215077026,65,-9999,1433577583.237428,4.965636730194092,-23.37764739990234,-39.35589599609375,196.8859558105469,187.4517669677734,25,113431.600626375,-0.0065155029296875,-0.1862030029296875,-0.9170379638671875,113431.601975375,-0.9566394214895433,-0.7581692054641511,-0.4855280888672892,113431.591142375,-0.09440633968731189,0.07987743387575652,0.1645864186395556,-0.7607710957527161,-0.7602757811546326,-0.4477849006652832,-0.06904014945030212,-0.04051660746335983,0.0859256237745285,XArbitraryZVertical,0.08392097683085485,0.03587306882282609,-0.0437100092354864,0.9948667386507714,0.07871422171592712,-0.1638443470001221,-0.9833407998085022,0,0,0,-1
2015-06-06 10:59:43.264,9,1433577582.742747,51.73538937348348,39.26756706136467,92.19784,-1,-1,17.15314215077026,65,-9999,1433577583.256921,4.418102741241455,-23.30921173095703,-39.55560302734375,196.5189666748047,187.0847778320312,25,113431.610378375,-0.0227813720703125,-0.1808013916015625,-0.92962646484375,113431.601975375,-0.9566394214895433,-0.7581692054641511,-0.4855280888672892,113431.591142375,-0.09440633968731189,0.07987743387575652,0.1645864186395556,-0.7607710957527161,-0.7602757811546326,-0.4477849006652832,-0.06904014945030212,-0.04051660746335983,0.0859256237745285,XArbitraryZVertical,0.08392097683085485,0.03587306882282609,-0.0437100092354864,0.9948667386507714,0.07871422171592712,-0.1638443470001221,-0.9833407998085022,0,0,0,-1
2015-06-06 10:59:43.274,10,1433577582.742747,51.73538937348348,39.26756706136467,92.19784,-1,-1,17.15314215077026,65,-9999,1433577583.256921,4.418102741241455,-23.30921173095703,-39.55560302734375,196.5189666748047,187.0847778320312,25,113431.620083375,-0.0239105224609375,-0.1753082275390625,-0.9451141357421875,113431.612809375,-0.9761177817023828,-0.7617642066196491,-0.4555334381419447,113431.601975375,-0.09887661853979511,0.07155173561852843,0.1550762381240142,-0.8694406151771545,-0.8484780788421631,-0.4755227267742157,-0.07714829593896866,-0.03174757957458496,0.06843376904726028,XArbitraryZVertical,0.07907858864212076,0.03179169282991005,-0.04647092661002473,0.9952770056950905,0.07063279300928116,-0.1544554233551025,-0.9854717254638672,0,0,0,-1
2015-06-06 10:59:43.283,11,1433577582.742747,51.73538937348348,39.26756706136467,92.19784,-1,-1,17.15314215077026,65,-9999,1433577583.27666,4.007452011108398,-22.62479400634766,-40.15469360351562,196.9476318359375,187.5134429931641,25,113431.629818375,-0.0126953125,-0.1626739501953125,-0.97406005859375,113431.623643375,-0.9027157357376189,-0.6819631171876428,-0.3750343341882286,113431.612809375,-0.1031989168836138,0.06291266410795546,0.1451092574341502,-0.8889192342758179,-0.8520728945732117,-0.445528119802475,-0.08499177545309067,-0.03620085120201111,0.05790609121322632,XArbitraryZVertical,0.07397656637719237,0.0275896623117339,-0.04913853134461894,0.9956664516281845,0.06221040338277817,-0.1446005403995514,-0.9875325560569763,0,0,0,-1
2015-06-06 10:59:43.306,12,1433577582.742747,51.73538937348348,39.26756706136467,92.19784,-1,-1,17.15314215077026,65,-9999,1433577583.297146,3.220373153686523,-21.83772277832031,-40.92019653320312,196.9551544189453,187.5209655761719,25,113431.639553375,-0.0062103271484375,-0.146148681640625,-1.013885498046875,113431.634477375,-0.7684063966944157,-0.5550206143518168,-0.2738754917621137,113431.623643375,-0.1068916204347941,0.05480606380285997,0.1358034007618186,-0.8155173659324646,-0.7722715735435486,-0.3650290071964264,-0.07818479835987091,-0.03992186859250069,0.04419109225273132,XArbitraryZVertical,0.06918753938871197,0.02367424204854861,-0.05142086018939764,0.9959962398494007,0.05427427589893341,-0.1353863626718521,-0.9893052577972412,0,0,0,-1
2015-06-06 10:59:43.308,13,1433577582.742747,51.73538937348348,39.26756706136467,92.19784,-1,-1,17.15314215077026,65,-9999,1433577583.297146,3.220373153686523,-21.83772277832031,-40.92019653320312,196.9551544189453,187.5209655761719,25,113431.649289375,-0.0035552978515625,-0.1297454833984375,-1.058258056640625,113431.645310375,-0.6092590857445885,-0.3894968968040129,-0.1708540344695975,113431.634477375,-0.1096435502892626,0.04778888458779967,0.127878596810011,-0.6812081933021545,-0.6453289389610291,-0.2638701796531677,-0.06007594615221024,-0.03514359891414642,0.0166422612965107,XArbitraryZVertical,0.06508801565681378,0.02030740196113033,-0.05314242707257992,0.9962565142011787,0.04738063365221024,-0.1275303512811661,-0.9907023310661316,0,0,0,-1
2015-06-06 10:59:43.313,14,1433577582.742747,51.73538937348348,39.26756706136467,92.19784,-1,-1,17.15314215077026,65,-9999,1433577583.297146,3.220373153686523,-21.83772277832031,-40.92019653320312,196.9551544189453,187.5209655761719,25,113431.658993375,-0.0010833740234375,-0.11328125,-1.105606079101562,113431.656144375,-0.4345938014389786,-0.2118834931716853,-0.0614484474119433,113431.645310375,-0.1113973946414283,0.04224155267489633,0.1217418720826452,-0.5220601558685303,-0.4798091053962708,-0.160847932100296,-0.04812676459550858,-0.02470731176435947,-0.02217233180999756,XArbitraryZVertical,0.06189899354483008,0.01766157011011805,-0.05427164505948758,0.9964492822426637,0.04191643744707108,-0.1214413717389107,-0.9917131662368774,0,0,0,-1
2015-06-06 10:59:43.322,15,1433577582.742747,51.73538937348348,39.26756706136467,92.19784,-1,-1,17.15314215077026,65,-9999,1433577583.316358,2.775500059127808,-21.66661834716797,-41.41946411132812,196.7349090576172,187.3007202148438,25,113431.668728375,-0.0098114013671875,-0.0900726318359375,-1.134902954101562,113431.666993375,-0.2537941918784802,-0.09698487004963363,-0.01908820711314294,113431.656144375,-0.1120932015321675,0.03859175699716791,0.1174429464410258,-0.3473950922489166,-0.3021955192089081,-0.05144236981868744,-0.04187170416116714,-0.01257232949137688,-0.0658859983086586,XArbitraryZVertical,0.05966364439208151,0.01594426622716958,-0.05477971775904737,0.9965867811859495,0.03831640630960464,-0.1171731501817703,-0.9923720359802246,0,0,0,-1
2015-06-06 10:59:43.332,16,1433577582.742747,51.73538937348348,39.26756706136467,92.19784,-1,-1,17.15314215077026,65,-9999,1433577583.316358,2.775500059127808,-21.66661834716797,-41.41946411132812,196.7349090576172,187.3007202148438,25,113431.678464375,-0.0146331787109375,-0.0758056640625,-1.1539306640625,113431.677813375,-0.1159119559168268,-0.03390576910223481,0.04286863775089649,113431.666993375,-0.1121549856567486,0.0363006987409339,0.1151594074726565,-0.1665956825017929,-0.1872967034578323,-0.009082149714231491,-0.03713571652770042,0.001623791526071727,-0.1128840297460556,XArbitraryZVertical,0.05846351792891043,0.01486587339901468,-0.05490318879413897,0.9966677795231947,0.03605234250426292,-0.1149050444364548,-0.9927220344543457,0,0,0,-1
2015-06-06 10:59:43.342,17,1433577582.742747,51.73538937348348,39.26756706136467,92.19784,-1,-1,17.15314215077026,65,-9999,1433577583.336133,2.36484956741333,-21.46129608154297,-41.75228881835938,196.9205322265625,187.4863433837891,25,113431.688199375,-0.0160369873046875,-0.0465087890625,-1.175460815429688,113431.688676375,-0.04777710995602153,0.08553887000058208,0.09689086046315383,113431.677813375,-0.1117676436643296,0.03465475711559321,0.1145450985359878,-0.02871363051235676,-0.1242174133658409,0.05287467315793037,-0.04423217102885246,0.02422214858233929,-0.142052561044693,XArbitraryZVertical,0.0581094866681014,0.0140743837877473,-0.05476454435355878,0.9967076020387884,0.03442076966166496,-0.1142947822809219,-0.9928504228591919,0,0,0,-1
2015-06-06 10:59:43.352,18,1433577582.742747,51.73538937348348,39.26756706136467,92.19784,-1,-1,17.15314215077026,65,-9999,1433577583.336133,2.36484956741333,-21.46129608154297,-41.75228881835938,196.9205322265625,187.4863433837891,25,113431.697924375,-0.0248260498046875,-0.0254364013671875,-1.188766479492188,113431.699509375,-0.006205431655993633,0.1409976018048282,0.09185109441628789,113431.688676375,-0.1107222926487177,0.0341828710213463,0.1148688725413517,0.03942092880606651,-0.004772474057972431,0.1068968623876572,-0.04998797550797462,0.06810763478279114,-0.1826313138008118,XArbitraryZVertical,0.05825066324615735,0.01386048093821914,-0.0542540181637978,0.996730278868173,0.03395098820328712,-0.1146164238452911,-0.9928295016288757,0,0,0,-1
2015-06-06 10:59:43.361,19,1433577582.742747,51.73538937348348,39.26756706136467,92.19784,-1,-1,17.15314215077026,65,-9999,1433577583.355894,2.33063006401062,-21.22174835205078,-42.25155639648438,197.3276977539062,187.8935089111328,25,113431.707638375,0.0102691650390625,-0.009613037109375,-1.156219482421875,113431.699509375,-0.006205431655993633,0.1409976018048282,0.09185109441628789,113431.688676375,-0.1107222926487177,0.0341828710213463,0.1148688725413517,0.03942092880606651,-0.004772474057972431,0.1068968623876572,-0.04998797550797462,0.06810763478279114,-0.1826313138008118,XArbitraryZVertical,0.05825066324615735,0.01386048093821914,-0.0542540181637978,0.996730278868173,0.03395098820328712,-0.1146164238452911,-0.9928295016288757,0,0,0,-1
2015-06-06 10:59:43.373,20,1433577582.742747,51.73538937348348,39.26756706136467,92.19784,-1,-1,17.15314215077026,65,-9999,1433577583.355894,2.33063006401062,-21.22174835205078,-42.25155639648438,197.3276977539062,187.8935089111328,25,113431.717373375,-0.010650634765625,-0.013580322265625,-1.140945434570312,113431.710338375,0.02413622895938814,0.1350574209934064,0.09105667346311724,113431.688676375,-0.1107222926487177,0.0341828710213463,0.1148688725413517,0.03942092880606651,-0.004772474057972431,0.1068968623876572,-0.04998797550797462,0.06810763478279114,-0.1826313138008118,XArbitraryZVertical,0.05825066324615735,0.01386048093821914,-0.0542540181637978,0.996730278868173,0.03395098820328712,-0.1146164238452911,-0.9928295016288757,0,0,0,-1
2015-06-06 10:59:43.387,21,1433577582.742747,51.73538937348348,39.26756706136467,92.19784,-1,-1,17.15314215077026,65,-9999,1433577583.375667,2.296410799026489,-20.98219299316406,-41.81884765625,197.4561309814453,188.0219421386719,25,113431.727077375,-0.022796630859375,-0.0160675048828125,-1.13006591796875,113431.721177375,0.04873744584510411,0.109834888625375,0.08518813168501864,113431.710338375,-0.1085326699046977,0.03490503077350333,0.1168265391063194,0.111333891749382,0.04474646598100662,0.1010626330971718,-0.02439089864492416,0.1069479361176491,-0.1636409163475037,XArbitraryZVertical,0.05923019683796665,0.01423018369589268,-0.05312162154095283,0.9967283376022658,0.03466006368398666,-0.1165609732270241,-0.9925785660743713,0,0,0,-1
2015-06-06 10:59:43.391,22,1433577582.742747,51.73538937348348,39.26756706136467,92.19784,-1,-1,17.15314215077026,65,-9999,1433577583.375667,2.296410799026489,-20.98219299316406,-41.81884765625,197.4561309814453,188.0219421386719,25,113431.736812375,-0.0149078369140625,-0.0208282470703125,-1.106369018554688,113431.732011375,0.09418029510567119,0.06780727714672551,0.07466624853422457,113431.721177375,-0.1075247295719014,0.03508956611437743,0.1182684643177767,0.1359349191188812,0.01952412910759449,0.09519406408071518,-0.04548792913556099,0.1044126227498055,-0.1485422700643539,XArbitraryZVertical,0.0599463998386355,0.01431258930476877,-0.05259894512551,0.9967120596769473,0.03483729436993599,-0.1179929450154305,-0.9924031496047974,0,0,0,-1
2015-06-06 10:59:43.400,23,1433577582.742747,51.73538937348348,39.26756706136467,92.19784,-1,-1,17.15314215077026,65,-9999,1433577583.395596,2.33063006401062,-21.01641082763672,-41.11990356445312,197.4487457275391,188.0145568847656,25,113431.746533375,-0.0149383544921875,-0.03533935546875,-1.089752197265625,113431.742844375,0.129733761974338,0.03780224009312975,0.07014260310661598,113431.732011375,-0.1066406737623722,0.03483814975558092,0.1201330402563305,0.181377574801445,-0.02250328287482262,0.08467216044664383,-0.05737669393420219,0.1037767827510834,-0.1378756314516068,XArbitraryZVertical,0.0608626276562024,0.01416323150686149,-0.05214675397737541,0.9966824265921859,0.03458006307482719,-0.1198442876338959,-0.9921903014183044,0,0,0,-1
2015-06-06 10:59:43.410,24,1433577582.742747,51.73538937348348,39.26756706136467,92.19784,-1,-1,17.15314215077026,65,-9999,1433577583.395596,2.33063006401062,-21.01641082763672,-41.11990356445312,197.4487457275391,188.0145568847656,25,113431.756283375,-0.015411376953125,-0.0506591796875,-1.068359375,113431.753678375,0.1285936627116751,0.03537876350115764,0.06404502947477056,113431.742844375,-0.1058326270476838,0.03424948611963703,0.1224263593440748,0.216930940747261,-0.05250822752714157,0.08014851063489914,-0.04889432713389397,0.1012925133109093,-0.1144358366727829,XArbitraryZVertical,0.06198438713531812,0.01383274152077652,-0.05173872993309199,0.9966391999306412,0.03398649021983147,-0.1221207603812218,-0.9919331669807434,0,0,0,-1
2015-06-06 10:59:43.420,25,1433577582.742747,51.73538937348348,39.26756706136467,92.19784,-1,-1,17.15314215077026,65,-9999,1433577583.415307,2.433294296264648,-20.84531402587891,-40.48751831054688,197.6966857910156,188.2624969482422,25,113431.765987375,-0.0099029541015625,-0.0689697265625,-1.037429809570312,113431.764505375,0.09819128202343953,0.04971935333901632,0.05398440582477822,113431.753678375,-0.1050719158461891,0.0335606158276566,0.1248242283958774,0.2157906740903854,-0.05493150651454926,0.0740509107708931,-0.04823160171508789,0.0891609787940979,-0.09809135645627975,XArbitraryZVertical,0.06315618778139082,0.01344896136341413,-0.05135705362936886,0.9965906252948985,0.03329324722290039,-0.1245003342628479,-0.9916608333587646,0,0,0,-1
2015-06-06 10:59:43.429,26,1433577582.742747,51.73538937348348,39.26756706136467,92.19784,-1,-1,17.15314215077026,65,-9999,1433577583.415307,2.433294296264648,-20.84531402587891,-40.48751831054688,197.6966857910156,188.2624969482422,25,113431.775723375,-0.0077972412109375,-0.085662841796875,-1.003952026367188,113431.775346375,0.001221325675910339,0.06509032020262666,0.04413390558479314,113431.764505375,-0.1040764012187975,0.03029636164966314,0.1226924601794453,0.1852042973041534,-0.04068483039736748,0.06400149315595627,-0.04547539353370667,0.07172568887472153,-0.07633210718631744,XArbitraryZVertical,0.06200415984516611,0.01191010112627768,-0.0509835081861392,0.9967017184424287,0.03006401658058167,-0.1223848685622215,-0.9920272827148438,0,0,0,-1
2015-06-06 10:59:43.439,27,1433577582.742747,51.73538937348348,39.26756706136467,92.19784,-1,-1,17.15314215077026,65,-9999,1433577583.433243,2.467513561248779,-20.81110382080078,-40.32113647460938,197.9105072021484,188.476318359375,25,113431.785458375,-0.0090179443359375,-0.106842041015625,-0.962890625,113431.786179375,-0.07387555600658005,0.07210508651389537,0.03940652833379348,113431.775346375,-0.1034983170647859,0.02993857793592683,0.1239090090475385,0.08823414891958237,-0.02531366609036922,0.05415097251534462,-0.03960755839943886,0.05462245270609856,-0.04554140567779541,XArbitraryZVertical,0.06259785389168698,0.01171775722419985,-0.05069549400578668,0.9966815789113886,0.02970460429787636,-0.1235921829938889,-0.9918884038925171,0,0,0,-1
2015-06-06 10:59:43.449,28,1433577582.742747,51.73538937348348,39.26756706136467,92.19784,-1,-1,17.15314215077026,65,-9999,1433577583.433243,2.467513561248779,-20.81110382080078,-40.32113647460938,197.9105072021484,188.476318359375,25,113431.795194375,-0.00384521484375,-0.1212615966796875,-0.931427001953125,113431.797013375,-0.1504331815469789,0.1019508665343044,0.02026718852772102,113431.786179375,-0.1029596961982841,0.02963501431192107,0.1242646198138783,0.01313698291778564,-0.01829860731959343,0.04942356050014496,-0.03842014074325562,0.01710301637649536,0.02896275743842125,XArbitraryZVertical,0.06276424158200199,0.01157404083735109,-0.05043338236411374,0.9966860917563994,0.02940219640731812,-0.1239450573921204,-0.9918533563613892,0,0,0,-1
2015-06-06 10:59:43.465,29,1433577582.742747,51.73538937348348,39.26756706136467,92.19784,-1,-1,17.15314215077026,65,-9999,1433577583.452877,2.091082334518433,-20.77688598632812,-40.287841796875,197.3707580566406,187.9365692138672,25,113431.804897375,0.0061798095703125,-0.12744140625,-0.9118499755859375,113431.797013375,-0.1504331815469789,0.1019508665343044,0.02026718852772102,113431.786179375,-0.1029596961982841,0.02963501431192107,0.1242646198138783,0.01313698291778564,-0.01829860731959343,0.04942356050014496,-0.03842014074325562,0.01710301637649536,0.02896275743842125,XArbitraryZVertical,0.06276424158200199,0.01157404083735109,-0.05043338236411374,0.9966860917563994,0.02940219640731812,-0.1239450573921204,-0.9918533563613892,0,0,0,-1
2015-06-06 10:59:43.468,30,1433577582.742747,51.73538937348348,39.26756706136467,92.19784,-1,-1,17.15314215077026,65,-9999,1433577583.452877,2.091082334518433,-20.77688598632812,-40.287841796875,197.3707580566406,187.9365692138672,25,113431.814632375,0.0133514404296875,-0.1284637451171875,-0.89971923828125,113431.807850375,-0.2159677170194308,0.1198065626949587,0.008485896497428485,113431.786179375,-0.1029596961982841,0.02963501431192107,0.1242646198138783,0.01313698291778564,-0.01829860731959343,0.04942356050014496,-0.03842014074325562,0.01710301637649536,0.02896275743842125,XArbitraryZVertical,0.06276424158200199,0.01157404083735109,-0.05043338236411374,0.9966860917563994,0.02940219640731812,-0.1239450573921204,-0.9918533563613892,0,0,0,-1
2015-06-06 10:59:43.478,31,1433577582.742747,51.73538937348348,39.26756706136467,92.19784,-1,-1,17.15314215077026,65,-9999,1433577583.472877,1.680431842803955,-20.98220825195312,-40.42098999023438,196.4740295410156,187.0398406982422,25,113431.824368375,0.0218353271484375,-0.1294708251953125,-0.901123046875,113431.818681375,-0.2693864674286762,0.1388843834798503,-0.009166067839834723,113431.807850375,-0.1020580663389576,0.02801211463460734,0.1228645679840162,-0.1289489716291428,0.02932760119438171,0.0185167882591486,-0.02161750383675098,-0.004885726142674685,0.08022230863571167,XArbitraryZVertical,0.06202075573578889,0.01082979093286888,-0.05004694284396297,0.9967604752388031,0.02779731340706348,-0.1225556805729866,-0.9920722842216492,0,0,0,-1
2015-06-06 10:59:43.488,32,1433577582.742747,51.73538937348348,39.26756706136467,92.19784,-1,-1,17.15314215077026,65,-9999,1433577583.472877,1.680431842803955,-20.98220825195312,-40.42098999023438,196.4740295410156,187.0398406982422,25,113431.834072375,0.03692626953125,-0.13134765625,-0.910491943359375,113431.829545375,-0.2969445920727071,0.1279369271868616,-0.02906360960825274,113431.818681375,-0.1019612374405774,0.02848611990051323,0.1210153332324533,-0.1823679208755493,0.04840561375021935,0.0008648025104776025,-0.01492252387106419,-0.007743568159639835,0.09256460517644882,XArbitraryZVertical,0.06111051354239724,0.01111685494521888,-0.0499999828625984,0.996815891920093,0.02827396430075169,-0.1207201778888702,-0.992283821105957,0,0,0,-1
2015-06-06 10:59:43.498,33,1433577582.742747,51.73538937348348,39.26756706136467,92.19784,-1,-1,17.15314215077026,65,-9999,1433577583.492818,1.714654207229614,-20.81110382080078,-40.52084350585938,196.3635101318359,186.9293212890625,25,113431.843807375,0.0542449951171875,-0.1308746337890625,-0.9232330322265625,113431.840379375,-0.3178876908850903,0.09524689112224792,-0.09266921750316023,113431.829545375,-0.1020307930156661,0.02893319821982836,0.1187892167923007,-0.2099262177944183,0.03745835646986961,-0.01903275959193707,-0.006889966316521168,-0.01096078101545572,0.09141422063112259,XArbitraryZVertical,0.06001263557757214,0.01139517042419096,-0.05004044006277206,0.9968774187533593,0.02872529439628124,-0.1185100451111794,-0.992537260055542,0,0,0,-1
2015-06-06 10:59:43.507,34,1433577582.742747,51.73538937348348,39.26756706136467,92.19784,-1,-1,17.15314215077026,65,-9999,1433577583.492818,1.714654207229614,-20.81110382080078,-40.52084350585938,196.3635101318359,186.9293212890625,25,113431.853542375,0.0694732666015625,-0.1294097900390625,-0.9414825439453125,113431.851212375,-0.3162682226262131,0.07474827389579902,-0.1121917861900951,113431.840379375,-0.1027129432082556,0.0292021575172924,0.1163098071889268,-0.2308694273233414,0.004768414422869682,-0.08263838291168213,0.007925534620881081,-0.01529991067945957,0.08232822269201279,XArbitraryZVertical,0.0587875472154486,0.0115733423142904,-0.05039415886430884,0.9969305446180419,0.02900073491036892,-0.1160477474331856,-0.992820143699646,0,0,0,-1
2015-06-06 10:59:43.517,35,1433577582.742747,51.73538937348348,39.26756706136467,92.19784,-1,-1,17.15314215077026,65,-9999,1433577583.51248,1.919979572296143,-20.67422485351562,-40.45428466796875,196.7697143554688,187.3355255126953,25,113431.863248375,0.051025390625,-0.1202392578125,-0.96337890625,113431.862029375,-0.2920531640985586,0.08916609540527,-0.1517389294294448,113431.851212375,-0.1038633024802555,0.03062501957013688,0.1150569253227963,-0.2291921377182007,-0.01567043177783489,-0.1021698638796806,0.02382721565663815,-0.01607139594852924,0.06968940794467926,XArbitraryZVertical,0.05820599110389241,0.0122817636686369,-0.05093716639002834,0.9969285962198872,0.03041777946054935,-0.1148032397031784,-0.9929224252700806,0,0,0,-1
2015-06-06 10:59:43.527,36,1433577582.742747,51.73538937348348,39.26756706136467,92.19784,-1,-1,17.15314215077026,65,-9999,1433577583.51248,1.919979572296143,-20.67422485351562,-40.45428466796875,196.7697143554688,187.3355255126953,25,113431.872983375,0.082244873046875,-0.1314239501953125,-0.9762420654296875,113431.872880375,-0.2661643088257893,0.072293904635182,-0.1926948848854463,113431.862029375,-0.1052259710264132,0.03075970250387689,0.1127073826694012,-0.20497727394104,-0.001252409187145531,-0.1417170315980911,0.0389135479927063,-0.01694087497889996,0.05170265957713127,XArbitraryZVertical,0.05704676961031591,0.01237193440945014,-0.05163400411914676,0.9969586405336074,0.03055972047150135,-0.1124689131975174,-0.9931852221488953,0,0,0,-1
2015-06-06 10:59:43.547,37,1433577582.742747,51.73538937348348,39.26756706136467,92.19784,-1,-1,17.15314215077026,65,-9999,1433577583.532281,1.851537704467773,-20.67422485351562,-40.92025756835938,196.5429534912109,187.1087646484375,25,113431.882698375,0.065673828125,-0.128692626953125,-0.983978271484375,113431.883714375,-0.2044234463261553,0.07603271648954424,-0.2074959352757797,113431.872880375,-0.1070629022157348,0.03082016152033174,0.1106493003482157,-0.1790886074304581,-0.0181244034320116,-0.1826730072498322,0.02039855532348156,-0.00981560442596674,0.03003370389342308,XArbitraryZVertical,0.05603390095351682,0.01240552094878412,-0.0525668116739093,0.9969669178585412,0.03062683530151844,-0.1104236543178558,-0.9934126138687134,0,0,0,-1
2015-06-06 10:59:43.548,38,1433577582.742747,51.73538937348348,39.26756706136467,92.19784,-1,-1,17.15314215077026,65,-9999,1433577583.532281,1.851537704467773,-20.67422485351562,-40.92025756835938,196.5429534912109,187.1087646484375,25,113431.892449375,0.063751220703125,-0.1147003173828125,-1.001510620117188,113431.894547375,-0.1394327283482976,0.1062550674880905,-0.2232727678895181,113431.883714375,-0.1093423222267954,0.03269457056245727,0.1101425701175136,-0.1172977313399315,-0.0143108768388629,-0.1974857151508331,0.03318316116929054,-0.01877261884510517,0.009430984035134315,XArbitraryZVertical,0.05584575433292686,0.01329000018393578,-0.05365537131872161,0.9969080844023415,0.03249066695570946,-0.109920009970665,-0.993409276008606,0,0,0,-1
2015-06-06 10:59:43.556,39,1433577582.742747,51.73538937348348,39.26756706136467,92.19784,-1,-1,17.15314215077026,65,-9999,1433577583.55212,1.988421201705933,-20.67422485351562,-41.11996459960938,196.8052520751953,187.3710632324219,25,113431.902157375,0.0787506103515625,-0.1160125732421875,-1.0130615234375,113431.894547375,-0.1394327283482976,0.1062550674880905,-0.2232727678895181,113431.883714375,-0.1093423222267954,0.03269457056245727,0.1101425701175136,-0.1172977313399315,-0.0143108768388629,-0.1974857151508331,0.03318316116929054,-0.01877261884510517,0.009430984035134315,XArbitraryZVertical,0.05584575433292686,0.01329000018393578,-0.05365537131872161,0.9969080844023415,0.03249066695570946,-0.109920009970665,-0.993409276008606,0,0,0,-1
2015-06-06 10:59:43.566,40,1433577582.742747,51.73538937348348,39.26756706136467,92.19784,-1,-1,17.15314215077026,65,-9999,1433577583.55212,1.988421201705933,-20.67422485351562,-41.11996459960938,196.8052520751953,187.3710632324219,25,113431.911892375,0.0792236328125,-0.118988037109375,-1.023361206054688,113431.905381375,-0.09360931336795821,0.1195988361299325,-0.2297588967244061,113431.883714375,-0.1093423222267954,0.03269457056245727,0.1101425701175136,-0.1172977313399315,-0.0143108768388629,-0.1974857151508331,0.03318316116929054,-0.01877261884510517,0.009430984035134315,XArbitraryZVertical,0.05584575433292686,0.01329000018393578,-0.05365537131872161,0.9969080844023415,0.03249066695570946,-0.109920009970665,-0.993409276008606,0,0,0,-1
2015-06-06 10:59:43.575,41,1433577582.742747,51.73538937348348,39.26756706136467,92.19784,-1,-1,17.15314215077026,65,-9999,1433577583.571944,2.33063006401062,-20.94799041748047,-41.1865234375,197.3975067138672,187.9633178710938,25,113431.921627375,0.081268310546875,-0.1099853515625,-1.03155517578125,113431.916215375,-0.0634748466853846,0.1269022891033658,-0.2280374293957789,113431.905381375,-0.1139818929495227,0.03358570446609101,0.1090717472151089,-0.00648397346958518,0.02925563603639603,-0.2197487205266953,0.04537076130509377,-0.007156962063163519,-0.01956454664468765,XArbitraryZVertical,0.05536772951644273,0.01363548438238752,-0.05595356827508408,0.9968037350908833,0.03337984904646873,-0.1088556125760078,-0.9934969544410706,0,0,0,-1
2015-06-06 10:59:43.585,42,1433577582.742747,51.73538937348348,39.26756706136467,92.19784,-1,-1,17.15314215077026,65,-9999,1433577583.571944,2.33063006401062,-20.94799041748047,-41.1865234375,197.3975067138672,187.9633178710938,25,113431.931333375,0.084716796875,-0.1102294921875,-1.032302856445312,113431.927037375,-0.03713245507897482,0.1486193025285259,-0.2347597806193569,113431.916215375,-0.1163578100191758,0.03421422864877037,0.1091566096123774,0.02365029975771904,0.03655928000807762,-0.2180272936820984,0.04521967098116875,-0.01004806812852621,-0.0298946425318718,XArbitraryZVertical,0.05544413020177706,0.01388043336048073,-0.05711942409015264,0.9967299801789357,0.03400396183133125,-0.1089399680495262,-0.9934665560722351,0,0,0,-1
2015-06-06 10:59:43.595,43,1433577582.742747,51.73538937348348,39.26756706136467,92.19784,-1,-1,17.15314215077026,65,-9999,1433577583.59173,2.296407699584961,-20.98221588134766,-41.15322875976562,197.0086517333984,187.574462890625,25,113431.941078375,0.082794189453125,-0.1108551025390625,-1.02972412109375,113431.937882375,-0.005753493219007186,0.1559126354898169,-0.2390826237007735,113431.927037375,-0.1190332135675784,0.0372656466310167,0.1093864628990686,0.04999345541000366,0.05837059020996094,-0.2247663587331772,0.04423396289348602,-0.0008169002830982208,-0.0382220447063446,XArbitraryZVertical,0.0556662908219813,0.01531989720098656,-0.05836550464500598,0.9966243187296836,0.03703434765338898,-0.1091684475541115,-0.993333101272583,0,0,0,-1
2015-06-06 10:59:43.604,44,1433577582.742747,51.73538937348348,39.26756706136467,92.19784,-1,-1,17.15314215077026,65,-9999,1433577583.59173,2.296407699584961,-20.98221588134766,-41.15322875976562,197.0086517333984,187.574462890625,25,113431.950803375,0.0788726806640625,-0.1175689697265625,-1.035293579101562,113431.948716375,0.03896976991502048,0.1584405079965202,-0.2371736698314047,113431.937882375,-0.1215604794643636,0.03824716479231614,0.1100887726919549,0.08137223124504089,0.06566412746906281,-0.2290892153978348,0.04671043530106544,-0.0003629556158557534,-0.03908341377973557,XArbitraryZVertical,0.05606475244229314,0.01571694550162813,-0.05958962764028174,0.9965233551881131,0.03800636157393456,-0.1098665371537209,-0.9932194352149963,0,0,0,-1
2015-06-06 10:59:43.626,45,1433577582.742747,51.73538937348348,39.26756706136467,92.19784,-1,-1,17.15314215077026,65,-9999,1433577583.611888,2.330626964569092,-21.15332794189453,-41.58590698242188,196.8465728759766,187.4123840332031,25,113431.960538375,0.0828094482421875,-0.1164093017578125,-1.040740966796875,113431.959553375,0.1189897711886314,0.1490129177376396,-0.2408770616432689,113431.948716375,-0.1240720240649356,0.03928256013280566,0.1112146610613278,0.1260953098535538,0.06819218397140503,-0.2271802723407745,0.04376435652375221,0.0001304367906413972,-0.0366687960922718,XArbitraryZVertical,0.05667679033749415,0.01612693461574801,-0.06079899619448115,0.9964091255496814,0.03902983292937279,-0.1109855398535728,-0.9930553436279297,0,0,0,-1
2015-06-06 10:59:43.627,46,1433577582.742747,51.73538937348348,39.26756706136467,92.19784,-1,-1,17.15314215077026,65,-9999,1433577583.611888,2.330626964569092,-21.15332794189453,-41.58590698242188,196.8465728759766,187.4123840332031,25,113431.970241375,0.09088134765625,-0.122222900390625,-1.051910400390625,113431.970384375,0.2113338167226929,0.122776519942615,-0.2408746647982878,113431.959553375,-0.1266510889085498,0.0402594500249224,0.1131108314580716,0.2061151117086411,0.05876480415463448,-0.2308837026357651,0.03888130187988281,-0.004699175246059895,-0.04248891770839691,XArbitraryZVertical,0.05767229539170341,0.01647952608861115,-0.06203376859700156,0.9962701155398563,0.03999137878417969,-0.1128697916865349,-0.9928046464920044,0,0,0,-1
2015-06-06 10:59:43.634,47,1433577582.742747,51.73538937348348,39.26756706136467,92.19784,-1,-1,17.15314215077026,65,-9999,1433577583.631523,2.262185335159302,-21.22175598144531,-41.25311279296875,196.5574798583984,187.123291015625,25,113431.979978375,0.0928802490234375,-0.127471923828125,-1.062576293945312,113431.981217375,0.2830327711703512,0.1013023868088701,-0.239939096307343,113431.959553375,-0.1266510889085498,0.0402594500249224,0.1131108314580716,0.2061151117086411,0.05876480415463448,-0.2308837026357651,0.03888130187988281,-0.004699175246059895,-0.04248891770839691,XArbitraryZVertical,0.05767229539170341,0.01647952608861115,-0.06203376859700156,0.9962701155398563,0.03999137878417969,-0.1128697916865349,-0.9928046464920044,0,0,0,-1
2015-06-06 10:59:43.645,48,1433577582.742747,51.73538937348348,39.26756706136467,92.19784,-1,-1,17.15314215077026,65,-9999,1433577583.631523,2.262185335159302,-21.22175598144531,-41.25311279296875,196.5574798583984,187.123291015625,25,113431.989693375,0.095184326171875,-0.1271514892578125,-1.0765380859375,113431.992082375,0.275934381600854,0.09404101178066004,-0.2497991839272524,113431.981217375,-0.1321829134843229,0.04333143432727948,0.1196199672121337,0.3701606094837189,0.01113459654152393,-0.229959636926651,0.04987192153930664,-0.008137024939060211,-0.07065418362617493,XArbitraryZVertical,0.06105803725079099,0.01763130114460104,-0.06461766332786445,0.9958843361018759,0.04300832748413086,-0.1193348988890648,-0.9919220805168152,0,0,0,-1
2015-06-06 10:59:43.653,49,1433577582.742747,51.73538937348348,39.26756706136467,92.19784,-1,-1,17.15314215077026,65,-9999,1433577583.651303,2.159524202346802,-21.46131134033203,-40.6207275390625,196.4859466552734,187.0517578125,25,113431.999417375,0.1008758544921875,-0.1282806396484375,-1.076431274414062,113431.992082375,0.275934381600854,0.09404101178066004,-0.2497991839272524,113431.981217375,-0.1321829134843229,0.04333143432727948,0.1196199672121337,0.3701606094837189,0.01113459654152393,-0.229959636926651,0.04987192153930664,-0.008137024939060211,-0.07065418362617493,XArbitraryZVertical,0.06105803725079099,0.01763130114460104,-0.06461766332786445,0.9958843361018759,0.04300832748413086,-0.1193348988890648,-0.9919220805168152,0,0,0,-1
2015-06-06 10:59:43.663,50,1433577582.742747,51.73538937348348,39.26756706136467,92.19784,-1,-1,17.15314215077026,65,-9999,1433577583.651303,2.159524202346802,-21.46131134033203,-40.6207275390625,196.4859466552734,187.0517578125,25,113432.009151375,0.1041717529296875,-0.130126953125,-1.064865112304688,113432.002915375,0.2264845401641537,0.08188314877223031,-0.246997538460489,113431.981217375,-0.1321829134843229,0.04333143432727948,0.1196199672121337,0.3701606094837189,0.01113459654152393,-0.229959636926651,0.04987192153930664,-0.008137024939060211,-0.07065418362617493,XArbitraryZVertical,0.06105803725079099,0.01763130114460104,-0.06461766332786445,0.9958843361018759,0.04300832748413086,-0.1193348988890648,-0.9919220805168152,0,0,0,-1
2015-06-06 10:59:43.673,51,1433577582.742747,51.73538937348348,39.26756706136467,92.19784,-1,-1,17.15314215077026,65,-9999,1433577583.651303,2.159524202346802,-21.46131134033203,-40.6207275390625,196.4859466552734,187.0517578125,25,113432.018886375,0.1084442138671875,-0.1293182373046875,-1.036026000976562,113432.013749375,0.1651335644481073,0.05286321500585486,-0.236007471590059,113432.002915375,-0.1379370134812278,0.04578341541441919,0.126700435996024,0.3136081397533417,-0.008206608705222607,-0.2370317131280899,0.05547529458999634,-0.001918918685987592,-0.0854865238070488,XArbitraryZVertical,0.06471505208105376,0.01842783984861453,-0.06731193247686125,0.9954604364307446,0.04540055990219116,-0.1263617277145386,-0.9909447431564331,0,0,0,-1
2015-06-06 10:59:43.682,52,1433577582.742747,51.73538937348348,39.26756706136467,92.19784,-1,-1,17.15314215077026,65,-9999,1433577583.671007,1.954198837280273,-21.25598907470703,-40.6207275390625,195.2182464599609,185.7840576171875,25,113432.028622375,0.1146697998046875,-0.130859375,-1.021377563476562,113432.024583375,0.1191032218510687,-0.01831216197149385,-0.2578243535560972,113432.013749375,-0.1405285100568471,0.04578992926211177,0.1294949412827647,0.2522569894790649,-0.03722634539008141,-0.2260416597127914,0.05878107622265816,-0.0009936239803209901,-0.07427727431058884,XArbitraryZVertical,0.06612953763678854,0.01824730019335261,-0.06856341101280027,0.9952853756375031,0.04539067670702934,-0.129133328795433,-0.9905878305435181,0,0,0,-1
2015-06-06 10:59:43.708,53,1433577582.742747,51.73538937348348,39.26756706136467,92.19784,-1,-1,17.15314215077026,65,-9999,1433577583.671007,1.954198837280273,-21.25598907470703,-40.6207275390625,195.2182464599609,185.7840576171875,25,113432.038343375,0.1184844970703125,-0.1410064697265625,-1.011260986328125,113432.035408375,0.03311800605178938,-0.04483458326759298,-0.1768581311471811,113432.024583375,-0.1433255576571065,0.04522773964914917,0.1317133286173674,0.2062265425920486,-0.1084016263484955,-0.2478585690259933,0.06362350285053253,0.002014585537835956,-0.04570141062140465,XArbitraryZVertical,0.06723891468021702,0.01779419279425927,-0.06994372225702253,0.9951231937666096,0.04482070729136467,-0.1313328295946121,-0.9903246164321899,0,0,0,-1
2015-06-06 10:59:43.710,54,1433577582.742747,51.73538937348348,39.26756706136467,92.19784,-1,-1,17.15314215077026,65,-9999,1433577583.691543,1.851537704467773,-21.49552154541016,-40.7205810546875,194.5487213134766,185.1145324707031,25,113432.048062375,0.086761474609375,-0.1474456787109375,-1.017578125,113432.046242375,-0.03713644982060994,0.003348925070774642,-0.07450965466212792,113432.035408375,-0.1455259305423561,0.04406284440737787,0.13318414158705,0.1202411353588104,-0.1349238455295563,-0.1668923646211624,0.07101130485534668,0.001931378617882729,-0.03119548410177231,XArbitraryZVertical,0.0679486605247496,0.01708623948515217,-0.07105800365478925,0.9950084422102868,0.04365849867463112,-0.1327907592058182,-0.990182101726532,0,0,0,-1
2015-06-06 10:59:43.712,55,1433577582.742747,51.73538937348348,39.26756706136467,92.19784,-1,-1,17.15314215077026,65,-9999,1433577583.691543,1.851537704467773,-21.49552154541016,-40.7205810546875,194.5487213134766,185.1145324707031,25,113432.057797375,0.1355438232421875,-0.1385040283203125,-1.0029296875,113432.057074375,-0.06053631473859116,0.004643487676662159,-0.005735916355812663,113432.046242375,-0.1469781974362412,0.04652042894557032,0.134076099135954,0.05001163110136986,-0.08659222722053528,-0.06456808000802994,0.07239820063114166,-0.007331710774451494,-0.02130790054798126,XArbitraryZVertical,0.06849281319239077,0.01822612313021535,-0.07168442239118762,0.9949059687041151,0.04608629271388054,-0.133674755692482,-0.9899531006813049,0,0,0,-1
2015-06-06 10:59:43.721,56,1433577582.742747,51.73538937348348,39.26756706136467,92.19784,-1,-1,17.15314215077026,65,-9999,1433577583.710705,1.748876571655273,-21.66663360595703,-40.8204345703125,193.9618988037109,184.5277099609375,25,113432.067501375,0.1494903564453125,-0.1440887451171875,-0.98358154296875,113432.067918375,-0.1278450481292538,-0.03160799371371445,0.007537811149360276,113432.057074375,-0.1470981441067223,0.04567711103830307,0.1343788479453993,0.02661157958209515,-0.08529747277498245,0.004205634817481041,0.0415118932723999,-0.01347089372575283,-0.02762699872255325,XArbitraryZVertical,0.06861421750441768,0.01779117787281839,-0.07176877923739941,0.994899394648989,0.0452495813369751,-0.1339747905731201,-0.9899511337280273,0,0,0,-1
2015-06-06 10:59:43.732,57,1433577582.742747,51.73538937348348,39.26756706136467,92.19784,-1,-1,17.15314215077026,65,-9999,1433577583.710705,1.748876571655273,-21.66663360595703,-40.8204345703125,193.9618988037109,184.5277099609375,25,113432.077227375,0.121185302734375,-0.1551361083984375,-0.9934234619140625,113432.078751375,-0.1296781019075554,-0.01581411686899952,0.07674138365561432,113432.067918375,-0.1469073285384376,0.04426977743079347,0.13415691214152,-0.04069744050502777,-0.1215486600995064,0.01747933030128479,0.1056326925754547,-0.0103338984772563,0.006461964454501867,XArbitraryZVertical,0.06845168803913523,0.01710592493479389,-0.07172511046160659,0.9949257571628073,0.04385766014456749,-0.1337548494338989,-0.9900435209274292,0,0,0,-1
2015-06-06 10:59:43.741,58,1433577582.742747,51.73538937348348,39.26756706136467,92.19784,-1,-1,17.15314215077026,65,-9999,1433577583.730618,1.748876571655273,-21.73507690429688,-41.0201416015625,194.0451965332031,184.6110076904297,25,113432.086958375,0.10247802734375,-0.1614837646484375,-1.004135131835938,113432.078751375,-0.1296781019075554,-0.01581411686899952,0.07674138365561432,113432.067918375,-0.1469073285384376,0.04426977743079347,0.13415691214152,-0.04069744050502777,-0.1215486600995064,0.01747933030128479,0.1056326925754547,-0.0103338984772563,0.006461964454501867,XArbitraryZVertical,0.06845168803913523,0.01710592493479389,-0.07172511046160659,0.9949257571628073,0.04385766014456749,-0.1337548494338989,-0.9900435209274292,0,0,0,-1
2015-06-06 10:59:43.750,59,1433577582.742747,51.73538937348348,39.26756706136467,92.19784,-1,-1,17.15314215077026,65,-9999,1433577583.730618,1.748876571655273,-21.73507690429688,-41.0201416015625,194.0451965332031,184.6110076904297,25,113432.096706375,0.126007080078125,-0.117279052734375,-0.992645263671875,113432.089585375,-0.09096559335383654,0.0386105094839688,0.1516840683109891,113432.078751375,-0.1466651914633149,0.04654110519558424,0.1346024303824379,-0.04247180372476578,-0.1055981069803238,0.08665920048952103,0.07508181780576706,-0.02093975991010666,-0.003541747108101845,XArbitraryZVertical,0.06875246484647138,0.01822748528010366,-0.07152062067376125,0.9948998231864027,0.04610348120331764,-0.1341963410377502,-0.989881694316864,0,0,0,-1
2015-06-06 10:59:43.760,60,1433577582.742747,51.73538937348348,39.26756706136467,92.19784,-1,-1,17.15314215077026,65,-9999,1433577583.751175,1.611993074417114,-21.87195587158203,-41.28640747070312,193.7440948486328,184.3099060058594,25,113432.106412375,0.1200103759765625,-0.1572418212890625,-0.990386962890625,113432.100419375,-0.04184278809899797,0.05807448862692192,0.1877331494585197,113432.089585375,-0.1450490015000749,0.04560621151965441,0.1345533403968849,-0.003759483806788921,-0.05117328464984894,0.1616018563508987,0.05729969963431358,-0.02733606286346912,-0.0142041677609086,XArbitraryZVertical,0.06868023309661477,0.01781975782112696,-0.07074942382892267,0.9949673365698311,0.04517832770943642,-0.1341477036476135,-0.9899309873580933,0,0,0,-1
2015-06-06 10:59:43.770,61,1433577582.742747,51.73538937348348,39.26756706136467,92.19784,-1,-1,17.15314215077026,65,-9999,1433577583.751175,1.611993074417114,-21.87195587158203,-41.28640747070312,193.7440948486328,184.3099060058594,25,113432.116147375,0.1163482666015625,-0.1675567626953125,-1.014984130859375,113432.111253375,-0.02749048035234294,0.05817675401278096,0.2170545530602921,113432.100419375,-0.1430143679101265,0.04495608170237667,0.1350000105192461,0.04536313191056252,-0.03170911222696304,0.1976509243249893,0.08147504180669785,0.01731126941740513,-0.00274509540759027,XArbitraryZVertical,0.06886157488442821,0.0175499116412599,-0.06975343664215924,0.9950299202448264,0.04453203827142715,-0.1345903277397156,-0.9899001717567444,0,0,0,-1
2015-06-06 10:59:43.788,62,1433577582.742747,51.73538937348348,39.26756706136467,92.19784,-1,-1,17.15314215077026,65,-9999,1433577583.770967,1.543551206588745,-21.87195587158203,-41.28640747070312,193.2371673583984,183.802978515625,25,113432.125881375,0.0976409912109375,-0.1514129638671875,-1.024032592773438,113432.122086375,-0.03152650098435802,0.07986447266595025,0.2329110141906239,113432.111253375,-0.140637054946706,0.04429258049165236,0.135766446347815,0.05971524864435196,-0.03160665556788445,0.226972296833992,0.07613972574472427,-0.02189207635819912,-0.0005608099163509905,XArbitraryZVertical,0.06919917480835693,0.01727419251489611,-0.06858320646891182,0.995092669186765,0.04387064650654793,-0.1353497505187988,-0.9898261427879333,0,0,0,-1
2015-06-06 10:59:43.789,63,1433577582.742747,51.73538937348348,39.26756706136467,92.19784,-1,-1,17.15314215077026,65,-9999,1433577583.770967,1.543551206588745,-21.87195587158203,-41.28640747070312,193.2371673583984,183.802978515625,25,113432.135617375,0.09906005859375,-0.1495513916015625,-1.01544189453125,113432.132951375,-0.02463157692214287,0.09917132530458869,0.247703808781578,113432.122086375,-0.1384773354648444,0.0468863972760978,0.1377232156975828,0.05574793741106987,-0.009782491251826286,0.2428093254566193,0.06992284208536148,-0.03026851639151573,-0.02554155141115189,XArbitraryZVertical,0.07024135895073928,0.01857045787970512,-0.06739137961624833,0.9950777314060983,0.04642542079091072,-0.1372882425785065,-0.9894425868988037,0,0,0,-1
2015-06-06 10:59:43.799,64,1433577582.742747,51.73538937348348,39.26756706136467,92.19784,-1,-1,17.15314215077026,65,-9999,1433577583.790406,1.269783973693848,-21.87195587158203,-41.35296630859375,192.1149139404297,182.6807250976562,25,113432.145321375,0.097320556640625,-0.1396942138671875,-0.997802734375,113432.143775375,-0.017779263437369,0.1232814552852941,0.2576794775927969,113432.132951375,-0.1357274459472697,0.0465391656694526,0.1385181403912118,0.06264267116785049,0.009524555876851082,0.2576020956039429,0.05156422778964043,-0.01333736255764961,-0.03468327969312668,XArbitraryZVertical,0.07059974730286113,0.01846672312182665,-0.06602426496717832,0.9951459452027401,0.04607676342129707,-0.1380756050348282,-0.9893493056297302,0,0,0,-1
2015-06-06 10:59:43.811,65,1433577582.742747,51.73538937348348,39.26756706136467,92.19784,-1,-1,17.15314215077026,65,-9999,1433577583.809762,0.8933529853820801,-21.63240051269531,-40.98684692382812,191.1160736083984,181.681884765625,25,113432.155057375,0.087158203125,-0.1511993408203125,-0.988494873046875,113432.154606375,-0.01450224371602649,0.1521479909728809,0.2458073717693326,113432.143775375,-0.1328580017826523,0.0464409101246883,0.1393855451338868,0.06949479877948761,0.03363488242030144,0.267577737569809,0.05308608338236809,-0.01061674673110247,-0.02620807103812695,XArbitraryZVertical,0.07100154549270173,0.01848969162502865,-0.06458788524401032,0.995211192120026,0.04597397521138191,-0.1389346420764923,-0.9892338514328003,0,0,0,-1
2015-06-06 10:59:43.818,66,1433577582.742747,51.73538937348348,39.26756706136467,92.19784,-1,-1,17.15314215077026,65,-9999,1433577583.809762,0.8933529853820801,-21.63240051269531,-40.98684692382812,191.1160736083984,181.681884765625,25,113432.164791375,0.0815887451171875,-0.15966796875,-0.9848480224609375,113432.165452375,-0.03176645179857416,0.1857368439053963,0.216680378927136,113432.154606375,-0.1300544559839875,0.04662969704162229,0.1403118910989454,0.07277163118124008,0.06250160932540894,0.2557056248188019,0.05116584524512291,0.0001577335351612419,-0.008706593886017799,XArbitraryZVertical,0.07144241231269804,0.01865238252139261,-0.06317321130767781,0.9952674091530833,0.04615471139550209,-0.1398519426584244,-0.9890961647033691,0,0,0,-1
2015-06-06 10:59:43.829,67,1433577582.742747,51.73538937348348,39.26756706136467,92.19784,-1,-1,17.15314215077026,65,-9999,1433577583.809762,0.8933529853820801,-21.63240051269531,-40.98684692382812,191.1160736083984,181.681884765625,25,113432.174527375,0.0728302001953125,-0.1613311767578125,-0.9730377197265625,113432.176286375,-0.04879470380854081,0.2012841120331699,0.192279698071503,113432.165452375,-0.1277949125076801,0.0490825342230245,0.1415816598886476,0.05553654208779335,0.09617350995540619,0.2265661209821701,0.03301683440804482,-0.01855884492397308,0.00395376980304718,XArbitraryZVertical,0.07212909346770439,0.01991224915970162,-0.06194274451756574,0.9952708137037669,0.04857191070914268,-0.1411091238260269,-0.9888017773628235,0,0,0,-1
2015-06-06 10:59:43.838,68,1433577582.742747,51.73538937348348,39.26756706136467,92.19784,-1,-1,17.15314215077026,65,-9999,1433577583.82975,0.9275751113891602,-21.39286041259766,-40.82040405273438,190.7208557128906,181.2866668701172,25,113432.184231375,0.064056396484375,-0.163848876953125,-0.9619598388671875,113432.176286375,-0.04879470380854081,0.2012841120331699,0.192279698071503,113432.165452375,-0.1277949125076801,0.0490825342230245,0.1415816598886476,0.05553654208779335,0.09617350995540619,0.2265661209821701,0.03301683440804482,-0.01855884492397308,0.00395376980304718,XArbitraryZVertical,0.07212909346770439,0.01991224915970162,-0.06194274451756574,0.9952708137037669,0.04857191070914268,-0.1411091238260269,-0.9888017773628235,0,0,0,-1
2015-06-06 10:59:43.847,69,1433577582.742747,51.73538937348348,39.26756706136467,92.19784,-1,-1,17.15314215077026,65,-9999,1433577583.82975,0.9275751113891602,-21.39286041259766,-40.82040405273438,190.7208557128906,181.2866668701172,25,113432.193966375,0.0612945556640625,-0.165771484375,-0.956207275390625,113432.187119375,-0.0630277019383603,0.1939556253454899,0.1604836851848289,113432.165452375,-0.1277949125076801,0.0490825342230245,0.1415816598886476,0.05553654208779335,0.09617350995540619,0.2265661209821701,0.03301683440804482,-0.01855884492397308,0.00395376980304718,XArbitraryZVertical,0.07212909346770439,0.01991224915970162,-0.06194274451756574,0.9952708137037669,0.04857191070914268,-0.1411091238260269,-0.9888017773628235,0,0,0,-1
2015-06-06 10:59:43.873,70,1433577582.742747,51.73538937348348,39.26756706136467,92.19784,-1,-1,17.15314215077026,65,-9999,1433577583.850178,0.8249111175537109,-21.35865020751953,-41.25308227539062,190.1790924072266,180.7449035644531,25,113432.203701375,0.0574951171875,-0.1753997802734375,-0.956939697265625,113432.197953375,-0.07088855452794718,0.1673714187121009,0.1213722350998162,113432.187119375,-0.12359259943982,0.05083627887509592,0.1425286535177281,0.0242749135941267,0.1043926849961281,0.1703693866729736,0.01375726982951164,-0.02180229872465134,0.02662135101854801,XArbitraryZVertical,0.07261074622819109,0.02090657843262305,-0.05977409995811716,0.9953480052145682,0.05029912665486336,-0.1420465856790543,-0.9885811805725098,0,0,0,-1
2015-06-06 10:59:43.878,71,1433577582.742747,51.73538937348348,39.26756706136467,92.19784,-1,-1,17.15314215077026,65,-9999,1433577583.850178,0.8249111175537109,-21.35865020751953,-41.25308227539062,190.1790924072266,180.7449035644531,25,113432.213436375,0.0579681396484375,-0.187164306640625,-0.972381591796875,113432.208787375,-0.07140227830222347,0.1347889743555264,0.0823297608870366,113432.197953375,-0.1221335142854402,0.05210119745227117,0.1440548720056566,0.01647482253611088,0.07783123850822449,0.1312580555677414,0.009756345301866531,-0.02221432887017727,0.03209184855222702,XArbitraryZVertical,0.07339219365762842,0.02154122910726973,-0.05897888794256931,0.9953245963683025,0.05153821036219597,-0.1435571610927582,-0.9882991313934326,0,0,0,-1
2015-06-06 10:59:43.880,72,1433577582.742747,51.73538937348348,39.26756706136467,92.19784,-1,-1,17.15314215077026,65,-9999,1433577583.869852,0.7222471237182617,-21.18753814697266,-41.41952514648438,189.4737396240234,180.03955078125,25,113432.223141375,0.059783935546875,-0.1846923828125,-0.982208251953125,113432.219621375,-0.04905888938867667,0.1130879398969068,0.03886058031032723,113432.208787375,-0.1210141029789346,0.05250918685143438,0.1442776793407581,0.01596091687679291,0.04524898901581764,0.09221556037664413,0.005555375944823027,-0.03162213042378426,0.03130634874105453,XArbitraryZVertical,0.07350290169195423,0.02177842392423719,-0.05840342296122635,0.9953451983511291,0.05193974077701569,-0.1437776535749435,-0.9882460236549377,0,0,0,-1
2015-06-06 10:59:43.886,73,1433577582.742747,51.73538937348348,39.26756706136467,92.19784,-1,-1,17.15314215077026,65,-9999,1433577583.869852,0.7222471237182617,-21.18753814697266,-41.41952514648438,189.4737396240234,180.03955078125,25,113432.232958,0.056365966796875,-0.1871490478515625,-0.9895172119140625,113432.230454375,-0.00359420220717094,0.0818224286993765,-0.003112968998193621,113432.208787375,-0.1210141029789346,0.05250918685143438,0.1442776793407581,0.01596091687679291,0.04524898901581764,0.09221556037664413,0.005555375944823027,-0.03162213042378426,0.03130634874105453,XArbitraryZVertical,0.07350290169195423,0.02177842392423719,-0.05840342296122635,0.9953451983511291,0.05193974077701569,-0.1437776535749435,-0.9882460236549377,0,0,0,-1
2015-06-06 10:59:43.896,74,1433577582.742747,51.73538937348348,39.26756706136467,92.19784,-1,-1,17.15314215077026,65,-9999,1433577583.888996,1.269781112670898,-21.39287567138672,-41.48605346679688,190.5926208496094,181.1584320068359,25,113432.242692,0.0507659912109375,-0.1776885986328125,-1.000534057617188,113432.241383,0.07672833416627294,0.0662948679636695,-0.04444629438065943,113432.230454375,-0.1202429792832017,0.05272161770304581,0.1454169141828585,0.08383897691965103,-0.007992195896804333,0.006736235693097115,0.007642926648259163,-0.03978742659091949,0.005862529389560223,XArbitraryZVertical,0.0740674968973915,0.02187727701071138,-0.05799442177778449,0.9953250914633918,0.05214100703597069,-0.1449049562215805,-0.9880707859992981,0,0,0,-1
2015-06-06 10:59:43.906,75,1433577582.742747,51.73538937348348,39.26756706136467,92.19784,-1,-1,17.15314215077026,65,-9999,1433577583.888996,1.269781112670898,-21.39287567138672,-41.48605346679688,190.5926208496094,181.1584320068359,25,113432.252428,0.051422119140625,-0.1726531982421875,-1.01885986328125,113432.252203,0.1522124394712608,0.04596722567920368,-0.07376077376359763,113432.241383,-0.1206063891023315,0.05274427022430318,0.1486775324912929,0.1642087996006012,-0.02351720817387104,-0.03459436073899269,0.00422776211053133,-0.039018664509058,-0.001924686250276864,XArbitraryZVertical,0.07569432420591944,0.02177398549134395,-0.05812442672885012,0.9951973743214316,0.05213820561766624,-0.1481303870677948,-0.9875925183296204,0,0,0,-1
2015-06-06 10:59:43.916,76,1433577582.742747,51.73538937348348,39.26756706136467,92.19784,-1,-1,17.15314215077026,65,-9999,1433577583.909271,1.543548107147217,-21.52976226806641,-41.81890869140625,191.1972503662109,181.7630615234375,25,113432.262152,0.0582122802734375,-0.169891357421875,-1.034255981445312,113432.263037,0.2104573704079478,0.04007125334187726,-0.08747046073921655,113432.252203,-0.1213497132413654,0.05243851900483582,0.1510414767297982,0.2396927177906036,-0.04384465143084526,-0.06390886008739471,-0.001051754574291408,-0.02722076512873173,-0.01327808666974306,XArbitraryZVertical,0.07686940990473978,0.02151995121533532,-0.05846966561996057,0.9950926005768881,0.05181774497032166,-0.1504678279161453,-0.9872559905052185,0,0,0,-1
2015-06-06 10:59:43.926,77,1433577582.742747,51.73538937348348,39.26756706136467,92.19784,-1,-1,17.15314215077026,65,-9999,1433577583.909271,1.543548107147217,-21.52976226806641,-41.81890869140625,191.1972503662109,181.7630615234375,25,113432.271876,0.069244384765625,-0.16168212890625,-1.04351806640625,113432.27387,0.240476255899212,0.05340277144270492,-0.08085756543644079,113432.263037,-0.1223178217455901,0.05206591933936408,0.1540727747102142,0.2979373633861542,-0.04974033311009407,-0.07761857658624649,0.006786362733691931,-0.01642743311822414,-0.04744080081582069,XArbitraryZVertical,0.07837655508812542,0.02120202124971138,-0.058919338102385,0.9949553263865766,0.05142591893672943,-0.1534639298915863,-0.9868151545524597,0,0,0,-1
2015-06-06 10:59:43.945,78,1433577582.742747,51.73538937348348,39.26756706136467,92.19784,-1,-1,17.15314215077026,65,-9999,1433577583.928667,1.611989974975586,-21.87197875976562,-41.28634643554688,191.4964904785156,182.0623016357422,25,113432.281603,0.0737762451171875,-0.1537017822265625,-1.03973388671875,113432.27387,0.240476255899212,0.05340277144270492,-0.08085756543644079,113432.263037,-0.1223178217455901,0.05206591933936408,0.1540727747102142,0.2979373633861542,-0.04974033311009407,-0.07761857658624649,0.006786362733691931,-0.01642743311822414,-0.04744080081582069,XArbitraryZVertical,0.07837655508812542,0.02120202124971138,-0.058919338102385,0.9949553263865766,0.05142591893672943,-0.1534639298915863,-0.9868151545524597,0,0,0,-1
2015-06-06 10:59:43.947,79,1433577582.742747,51.73538937348348,39.26756706136467,92.19784,-1,-1,17.15314215077026,65,-9999,1433577583.928667,1.611989974975586,-21.87197875976562,-41.28634643554688,191.4964904785156,182.0623016357422,25,113432.291338,0.08685302734375,-0.1446380615234375,-1.02587890625,113432.284735,0.2352245022295757,0.07030265908812974,-0.05171459362770368,113432.263037,-0.1223178217455901,0.05206591933936408,0.1540727747102142,0.2979373633861542,-0.04974033311009407,-0.07761857658624649,0.006786362733691931,-0.01642743311822414,-0.04744080081582069,XArbitraryZVertical,0.07837655508812542,0.02120202124971138,-0.058919338102385,0.9949553263865766,0.05142591893672943,-0.1534639298915863,-0.9868151545524597,0,0,0,-1
2015-06-06 10:59:43.955,80,1433577582.742747,51.73538937348348,39.26756706136467,92.19784,-1,-1,17.15314215077026,65,-9999,1433577583.948385,1.919979572296143,-21.90620422363281,-40.72055053710938,192.4466400146484,183.012451171875,25,113432.301073,0.0927276611328125,-0.13616943359375,-1.00653076171875,113432.295568,0.2198703132808329,0.107684119729027,-0.0007526093240563927,113432.284735,-0.1241610543624393,0.05218460090328847,0.1609515155952231,0.3227024972438812,-0.01949341222643852,-0.04186554625630379,0.02228949405252934,0.006555714178830385,-0.05400235578417778,XArbitraryZVertical,0.08182011261128026,0.02096912445040239,-0.05972556546550712,0.9946349188631396,0.05148675292730331,-0.1602575033903122,-0.9857315421104431,0,0,0,-1
2015-06-06 10:59:43.964,81,1433577582.742747,51.73538937348348,39.26756706136467,92.19784,-1,-1,17.15314215077026,65,-9999,1433577583.948385,1.919979572296143,-21.90620422363281,-40.72055053710938,192.4466400146484,183.012451171875,25,113432.310778,0.0970916748046875,-0.133636474609375,-0.9916839599609375,113432.306402,0.2045219832864882,0.1498502155843606,0.03690448848966404,113432.295568,-0.1243789776258958,0.0522960032701268,0.1643040113051639,0.3073481023311615,0.01788824610412121,0.009096412919461727,0.03528483584523201,0.01892769336700439,-0.0406951829791069,XArbitraryZVertical,0.08349241776763747,0.02090826011360972,-0.05977732929560025,0.9944941084474153,0.05156819149851799,-0.1635657548904419,-0.9851837158203125,0,0,0,-1
2015-06-06 10:59:43.975,82,1433577582.742747,51.73538937348348,39.26756706136467,92.19784,-1,-1,17.15314215077026,65,-9999,1433577583.969054,2.022643566131592,-22.28263854980469,-40.02157592773438,192.9690551757812,183.5348663330078,25,113432.320507,0.100738525390625,-0.136627197265625,-0.985015869140625,113432.317236,0.1843032642906066,0.1908186878974855,0.08296758796811057,113432.306402,-0.1241509357698394,0.05278503055984674,0.1675524144601974,0.2919995784759521,0.06005454063415527,0.04675348848104477,0.04070600122213364,0.03060010820627213,-0.02190816029906273,XArbitraryZVertical,0.08511933376026093,0.02105702641645871,-0.05959254061225974,0.9943641333847877,0.05202165991067886,-0.1667695343494415,-0.984622597694397,0,0,0,-1
2015-06-06 10:59:43.984,83,1433577582.742747,51.73538937348348,39.26756706136467,92.19784,-1,-1,17.15314215077026,65,-9999,1433577583.969054,2.022643566131592,-22.28263854980469,-40.02157592773438,192.9690551757812,183.5348663330078,25,113432.330247,0.0973358154296875,-0.1405181884765625,-0.98028564453125,113432.328069,0.1654206532136178,0.2245614715410075,0.125361916728864,113432.317236,-0.1237236753688906,0.05549335895149032,0.1691997937915806,0.2717452049255371,0.1010745689272881,0.09280508756637573,0.04241884127259254,0.03475714847445488,-0.007481507025659084,XArbitraryZVertical,0.08601393400307691,0.02236909930582479,-0.05923779159458105,0.994279694351924,0.05467283353209496,-0.1683936268091202,-0.9842024445533752,0,0,0,-1
2015-06-06 10:59:43.994,84,1433577582.742747,51.73538937348348,39.26756706136467,92.19784,-1,-1,17.15314215077026,65,-9999,1433577583.988072,1.885760068893433,-22.21420288085938,-39.28933715820312,192.5619964599609,183.1278076171875,25,113432.339982,0.097869873046875,-0.14019775390625,-0.9749603271484375,113432.33889,0.1295822281083125,0.2594629965748229,0.1675072399276949,113432.328069,-0.1225179166846124,0.05665146878807443,0.1720654595091564,0.2528623938560486,0.1348175406455994,0.1351993978023529,0.04495346546173096,0.0345904752612114,-0.001363219111226499,XArbitraryZVertical,0.08745853294141465,0.02290589425002151,-0.05854071242301076,0.9941827347189985,0.05578505992889404,-0.1712176650762558,-0.983652651309967,0,0,0,-1
2015-06-06 10:59:44.003,85,1433577582.742747,51.73538937348348,39.26756706136467,92.19784,-1,-1,17.15314215077026,65,-9999,1433577583.988072,1.885760068893433,-22.21420288085938,-39.28933715820312,192.5619964599609,183.1278076171875,25,113432.349687,0.0993499755859375,-0.149169921875,-0.9726715087890625,113432.349737,0.09643998729060342,0.2811006477994987,0.1950480540246403,113432.33889,-0.1208118668788463,0.05809842743777207,0.1746180102090238,0.2170237898826599,0.1697192490100861,0.1773446947336197,0.04015307500958443,0.0332137793302536,0.002845749026164412,XArbitraryZVertical,0.08874911482428902,0.02361986154371741,-0.05758582352156947,0.9941074236157286,0.05718274042010307,-0.1737319678068161,-0.9831314086914062,0,0,0,-1
2015-06-06 10:59:44.028,86,1433577582.742747,51.73538937348348,39.26756706136467,92.19784,-1,-1,17.15314215077026,65,-9999,1433577584.007865,1.817318439483643,-22.48796844482422,-38.69024658203125,192.2404174804688,182.8062286376953,25,113432.359436,0.110382080078125,-0.1573944091796875,-0.971954345703125,113432.360571,0.04534670914521522,0.2882538984874515,0.2246392358448378,113432.349737,-0.1190582350708308,0.06147156577381838,0.1758711033365587,0.1838567405939102,0.1914051026105881,0.2048754096031189,0.03886475041508675,0.02579594776034355,0.01004334352910519,XArbitraryZVertical,0.08944653935170342,0.02533555286923797,-0.05654201818119136,0.9940625868318405,0.06048522517085075,-0.1749658733606339,-0.982714831829071,0,0,0,-1
2015-06-06 10:59:44.029,87,1433577582.742747,51.73538937348348,39.26756706136467,92.19784,-1,-1,17.15314215077026,65,-9999,1433577584.027583,1.440886974334717,-22.52218627929688,-39.05633544921875,190.6023101806641,181.1681213378906,25,113432.369156,0.1176910400390625,-0.1564788818359375,-0.9639129638671875,113432.371404,0.02591948162530519,0.2882293974054228,0.2364705953036238,113432.360571,-0.1166729841865181,0.06319077660867195,0.1775911908135669,0.1327632665634155,0.1985585689544678,0.2344665825366974,0.04822654649615288,0.01926475577056408,0.0103532588109374,XArbitraryZVertical,0.09031847571600882,0.02624444398188207,-0.0552481109370767,0.9940329211561867,0.06215553358197212,-0.1766591668128967,-0.9823076128959656,0,0,0,-1
2015-06-06 10:59:44.033,88,1433577582.742747,51.73538937348348,39.26756706136467,92.19784,-1,-1,17.15314215077026,65,-9999,1433577584.027583,1.440886974334717,-22.52218627929688,-39.05633544921875,190.6023101806641,181.1681213378906,25,113432.378892,0.119049072265625,-0.1570281982421875,-0.9611968994140625,113432.371404,0.02591948162530519,0.2882293974054228,0.2364705953036238,113432.360571,-0.1166729841865181,0.06319077660867195,0.1775911908135669,0.1327632665634155,0.1985585689544678,0.2344665825366974,0.04822654649615288,0.01926475577056408,0.0103532588109374,XArbitraryZVertical,0.09031847571600882,0.02624444398188207,-0.0552481109370767,0.9940329211561867,0.06215553358197212,-0.1766591668128967,-0.9823076128959656,0,0,0,-1
2015-06-06 10:59:44.042,89,1433577582.742747,51.73538937348348,39.26756706136467,92.19784,-1,-1,17.15314215077026,65,-9999,1433577584.027583,1.440886974334717,-22.52218627929688,-39.05633544921875,190.6023101806641,181.1681213378906,25,113432.388596,0.123779296875,-0.164703369140625,-0.9641876220703125,113432.382242,0.005464540240733589,0.2785578615906911,0.2409423090899759,113432.360571,-0.1166729841865181,0.06319077660867195,0.1775911908135669,0.1327632665634155,0.1985585689544678,0.2344665825366974,0.04822654649615288,0.01926475577056408,0.0103532588109374,XArbitraryZVertical,0.09031847571600882,0.02624444398188207,-0.0552481109370767,0.9940329211561867,0.06215553358197212,-0.1766591668128967,-0.9823076128959656,0,0,0,-1
2015-06-06 10:59:44.052,90,1433577582.742747,51.73538937348348,39.26756706136467,92.19784,-1,-1,17.15314215077026,65,-9999,1433577584.047566,1.509328842163086,-22.24842071533203,-38.98977661132812,190.0657806396484,180.631591796875,25,113432.398332,0.12420654296875,-0.1670989990234375,-0.9676666259765625,113432.393072,-0.02451919152414153,0.2628193784966498,0.2343129021884416,113432.382242,-0.1113823550247258,0.06650555128212539,0.1802665760844613,0.09288071841001511,0.1888629198074341,0.2507696151733398,0.05366940051317215,0.02226363867521286,0.02042417600750923,XArbitraryZVertical,0.09166514058956984,0.02805288182101729,-0.05241786546459811,0.9940135337118727,0.06537967175245285,-0.1792918294668198,-0.9816210865974426,0,0,0,-1
2015-06-06 10:59:44.062,91,1433577582.742747,51.73538937348348,39.26756706136467,92.19784,-1,-1,17.15314215077026,65,-9999,1433577584.047566,1.509328842163086,-22.24842071533203,-38.98977661132812,190.0657806396484,180.631591796875,25,113432.408067,0.124603271484375,-0.165130615234375,-0.9720611572265625,113432.403906,-0.0639624714809781,0.2409873165123982,0.2044570021558903,113432.393072,-0.1091520614951624,0.07031242794457551,0.1807161244094461,0.06288550049066544,0.1731909364461899,0.2441279143095016,0.05466886982321739,0.01503071282058954,0.01709694787859917,XArbitraryZVertical,0.09195464787550672,0.03003427112639748,-0.05112588894348884,0.9939961915277815,0.06911043077707291,-0.179734081029892,-0.9812845587730408,0,0,0,-1
2015-06-06 10:59:44.072,92,1433577582.742747,51.73538937348348,39.26756706136467,92.19784,-1,-1,17.15314215077026,65,-9999,1433577584.067132,1.611989974975586,-22.48796081542969,-39.08963012695312,189.4728546142578,180.0386657714844,25,113432.41779,0.1230621337890625,-0.162384033203125,-0.9733734130859375,113432.414739,-0.09122551787622828,0.2107788139515204,0.1820022931087782,113432.403906,-0.1067542256642749,0.07159304611497024,0.181235582497524,0.02344212494790554,0.1513589769601822,0.2142720073461533,0.05384621024131775,0.0131460577249527,0.01343537867069244,XArbitraryZVertical,0.09220861534869322,0.03076636269902591,-0.04986477053707703,0.9940143393538304,0.07036033272743225,-0.1802450567483902,-0.9811019897460938,0,0,0,-1
2015-06-06 10:59:44.081,93,1433577582.742747,51.73538937348348,39.26756706136467,92.19784,-1,-1,17.15314215077026,65,-9999,1433577584.067132,1.611989974975586,-22.48796081542969,-39.08963012695312,189.4728546142578,180.0386657714844,25,113432.427507,0.1185760498046875,-0.158477783203125,-0.978759765625,113432.425573,-0.110071111014065,0.1794158310580933,0.1717933313860684,113432.414739,-0.1045868905860462,0.072613078739104,0.1814185998343603,-0.003821110120043159,0.1211506649851799,0.1918172687292099,0.05324461311101913,0.0152944577857852,0.008935649879276752,XArbitraryZVertical,0.0922910237254467,0.03136819418449874,-0.04873680694214525,0.9940438254837636,0.07135865837335587,-0.1804250776767731,-0.9809967875480652,0,0,0,-1
2015-06-06 10:59:44.092,94,1433577582.742747,51.73538937348348,39.26756706136467,92.19784,-1,-1,17.15314215077026,65,-9999,1433577584.087416,1.611989974975586,-22.69329071044922,-39.62216186523438,189.4455871582031,180.0113983154297,25,113432.437241,0.1202239990234375,-0.1553802490234375,-0.9870452880859375,113432.436432,-0.1182456839800632,0.1625260634248107,0.1630613588039166,113432.425573,-0.102549002894071,0.0733033186175938,0.1813700515736099,-0.02266688831150532,0.08978788554668427,0.1816082894802094,0.05102572590112686,0.01799328811466694,0.007582639809697866,XArbitraryZVertical,0.09225135612397338,0.03180661529033762,-0.04769306098551,0.9940842008858661,0.07203640788793564,-0.1803773194551468,-0.9809560775756836,0,0,0,-1
2015-06-06 10:59:44.106,95,1433577582.742747,51.73538937348348,39.26756706136467,92.19784,-1,-1,17.15314215077026,65,-9999,1433577584.087416,1.611989974975586,-22.69329071044922,-39.62216186523438,189.4455871582031,180.0113983154297,25,113432.446976,0.12255859375,-0.1580047607421875,-0.9974822998046875,113432.447271,-0.1157987715704984,0.1649154515548298,0.1522017868269005,113432.436432,-0.1009417516450714,0.07564749568711052,0.1803304795434067,-0.03086462803184986,0.07295116037130356,0.1728653907775879,0.04422617703676224,0.02087691985070705,0.002211175160482526,XArbitraryZVertical,0.09176412260559787,0.0330737874216244,-0.04680796180871494,0.9941300141829165,0.07434987276792526,-0.1793546974658966,-0.9809709191322327,0,0,0,-1
2015-06-06 10:59:44.111,96,1433577582.742747,51.73538937348348,39.26756706136467,92.19784,-1,-1,17.15314215077026,65,-9999,1433577584.109272,1.680431842803955,-22.96705627441406,-40.02154541015625,189.3922424316406,179.9580535888672,25,113432.456682,0.11822509765625,-0.1612091064453125,-1.00140380859375,113432.458105,-0.1217639860961669,0.1600802162796819,0.1496518100831497,113432.447271,-0.09910686564483295,0.07610896115188741,0.1801787873564117,-0.02841799892485142,0.07534085214138031,0.1620057821273804,0.04775397852063179,0.02120070904493332,-0.01651865616440773,XArbitraryZVertical,0.09166894987223341,0.03339134744317118,-0.04587792566017997,0.9941715332287323,0.07480461895465851,-0.1792054623365402,-0.9809636473655701,0,0,0,-1
2015-06-06 10:59:44.120,97,1433577582.742747,51.73538937348348,39.26756706136467,92.19784,-1,-1,17.15314215077026,65,-9999,1433577584.109272,1.680431842803955,-22.96705627441406,-40.02154541015625,189.3922424316406,179.9580535888672,25,113432.466416,0.114288330078125,-0.1564178466796875,-1.004287719726562,113432.458105,-0.1217639860961669,0.1600802162796819,0.1496518100831497,113432.447271,-0.09910686564483295,0.07610896115188741,0.1801787873564117,-0.02841799892485142,0.07534085214138031,0.1620057821273804,0.04775397852063179,0.02120070904493332,-0.01651865616440773,XArbitraryZVertical,0.09166894987223341,0.03339134744317118,-0.04587792566017997,0.9941715332287323,0.07480461895465851,-0.1792054623365402,-0.9809636473655701,0,0,0,-1
2015-06-06 10:59:44.130,98,1433577582.742747,51.73538937348348,39.26756706136467,92.19784,-1,-1,17.15314215077026,65,-9999,1433577584.126714,2.056863069534302,-23.13816070556641,-39.6553955078125,189.3888854980469,179.9546966552734,25,113432.476151,0.111663818359375,-0.1565399169921875,-1.003753662109375,113432.468939,-0.1338057352810692,0.1528460054945907,0.1579062778818502,113432.458105,-0.09732123685213008,0.07657277858315671,0.1799589007620321,-0.03438339754939079,0.07050579786300659,0.1594557911157608,0.04296248778700829,0.01778003200888634,-0.02043570019304752,XArbitraryZVertical,0.09154026242158246,0.03370944319712481,-0.04497371050040495,0.994213970510851,0.07526260614395142,-0.1789891421794891,-0.9809681177139282,0,0,0,-1
2015-06-06 10:59:44.139,99,1433577582.742747,51.73538937348348,39.26756706136467,92.19784,-1,-1,17.15314215077026,65,-9999,1433577584.126714,2.056863069534302,-23.13816070556641,-39.6553955078125,189.3888854980469,179.9546966552734,25,113432.485856,0.108856201171875,-0.155975341796875,-1.003524780273438,113432.479772,-0.1473391209925249,0.1672579680496635,0.1602282880362904,113432.468939,-0.09572928670534604,0.07836515749056795,0.1786117729920318,-0.046453807502985,0.06331249326467514,0.167700931429863,0.03724877163767815,0.02124575711786747,-0.02321659587323666,XArbitraryZVertical,0.09088349682871272,0.03470775138461602,-0.04412942778343815,0.9942777054734323,0.07703956216573715,-0.1776636093854904,-0.9810711145401001,0,0,0,-1
2015-06-06 10:59:44.149,100,1433577582.742747,51.73538937348348,39.26756706136467,92.19784,-1,-1,17.15314215077026,65,-9999,1433577584.146554,2.022640705108643,-23.44614410400391,-39.62210083007812,188.9935913085938,179.5594024658203,25,113432.495591,0.1084442138671875,-0.1622467041015625,-1.000518798828125,113432.490606,-0.1512318635578937,0.1829069689310781,0.1663431722152213,113432.479772,-0.09403006311601225,0.08003953443365922,0.177237190746383,-0.06001348793506622,0.0777595192193985,0.1700147986412048,0.03296223282814026,0.01977080479264259,-0.02257040143013,XArbitraryZVertical,0.09020702709124913,0.03565195913543985,-0.04323881120595235,0.9943450282867904,0.07870158553123474,-0.1763107180595398,-0.9811832308769226,0,0,0,-1
2015-06-06 10:59:44.159,101,1433577582.742747,51.73538937348348,39.26756706136467,92.19784,-1,-1,17.15314215077026,65,-9999,1433577584.146554,2.022640705108643,-23.44614410400391,-39.62210083007812,188.9935913085938,179.5594024658203,25,113432.505327,0.1045074462890625,-0.16387939453125,-0.995391845703125,113432.501452,-0.1428996314553627,0.1913590432826626,0.168954667980153,113432.490606,-0.09222657967344131,0.08169320452836128,0.1758436769567773,-0.06393099576234818,0.09343790262937546,0.1761226058006287,0.02851219847798347,0.01896352507174015,-0.02222908847033978,XArbitraryZVertical,0.08951720820350224,0.03658993917687355,-0.04229871755641192,0.994413728927535,0.08034399896860123,-0.1749388724565506,-0.9812957048416138,0,0,0,-1
2015-06-06 10:59:44.169,102,1433577582.742747,51.73538937348348,39.26756706136467,92.19784,-1,-1,17.15314215077026,65,-9999,1433577584.166478,1.885756969451904,-23.58303070068359,-39.62210083007812,188.5016021728516,179.0674133300781,25,113432.515061,0.1030426025390625,-0.1658782958984375,-0.994537353515625,113432.512274,-0.1191058850121588,0.2167094073830179,0.1755582422191135,113432.501452,-0.09038927628487478,0.08334031144334506,0.1747998501567749,-0.05561481416225433,0.1019168347120285,0.1787282526493073,0.02646886743605137,0.01166433747857809,-0.01917533576488495,XArbitraryZVertical,0.08899876794878421,0.03751650111208201,-0.04133517035577011,0.9944662564107259,0.08197534829378128,-0.1739110350608826,-0.9813434481620789,0,0,0,-1
2015-06-06 10:59:44.189,103,1433577582.742747,51.73538937348348,39.26756706136467,92.19784,-1,-1,17.15314215077026,65,-9999,1433577584.18621,1.817315340042114,-23.58303070068359,-39.48898315429688,187.9893188476562,178.5551300048828,25,113432.524767,0.09918212890625,-0.1754302978515625,-0.99298095703125,113432.523102,-0.1071967612495425,0.228781516604347,0.1782496328167475,113432.512274,-0.08845180169278488,0.08503712115492344,0.1741374138254749,-0.03183348104357719,0.1272885501384735,0.1853272020816803,0.02085729874670506,0.009379266761243343,-0.01407431904226542,XArbitraryZVertical,0.0886673182240745,0.03846223003149139,-0.04031157000535836,0.9945017550832461,0.08365014940500259,-0.1732586622238159,-0.9813175201416016,0,0,0,-1
2015-06-06 10:59:44.190,104,1433577582.742747,51.73538937348348,39.26756706136467,92.19784,-1,-1,17.15314215077026,65,-9999,1433577584.18621,1.817315340042114,-23.58303070068359,-39.48898315429688,187.9893188476562,178.5551300048828,25,113432.534501,0.09356689453125,-0.1797637939453125,-0.9938201904296875,113432.533954,-0.1302104678094622,0.2371078897524798,0.1609827615731098,113432.523102,-0.08649731117236846,0.08678404506634539,0.1737566504055527,-0.01993386261165142,0.1393785327672958,0.188014805316925,0.0176725834608078,0.007005347870290279,-0.01330180279910564,XArbitraryZVertical,0.08847474137895778,0.03942644904163616,-0.03927118299309292,0.994522774721733,0.0853700190782547,-0.1728836447000504,-0.9812355637550354,0,0,0,-1
2015-06-06 10:59:44.198,105,1433577582.742747,51.73538937348348,39.26756706136467,92.19784,-1,-1,17.15314215077026,65,-9999,1433577584.18621,1.817315340042114,-23.58303070068359,-39.48898315429688,187.9893188476562,178.5551300048828,25,113432.544237,0.0860595703125,-0.1745452880859375,-0.9918975830078125,113432.544775,-0.1396055675030438,0.2214157456614059,0.1510281317345026,113432.533954,-0.08461084515548663,0.0884394192300024,0.1735607512281646,-0.04294729605317116,0.1477171927690506,0.1707460135221481,0.0121849263086915,-0.002739606657996774,-0.01185435336083174,XArbitraryZVertical,0.08837182912277518,0.04033755218150788,-0.03826455585670631,0.9945346275854783,0.08699720352888107,-0.1726906895637512,-0.981126606464386,0,0,0,-1
2015-06-06 10:59:44.208,106,1433577582.742747,51.73538937348348,39.26756706136467,92.19784,-1,-1,17.15314215077026,65,-9999,1433577584.206492,1.714654207229614,-23.54880523681641,-39.2559814453125,187.595703125,178.1615142822266,25,113432.553971,0.0775909423828125,-0.1715545654296875,-0.98876953125,113432.555609,-0.1403025167603175,0.1877070504798369,0.1471409818074229,113432.533954,-0.08461084515548663,0.0884394192300024,0.1735607512281646,-0.04294729605317116,0.1477171927690506,0.1707460135221481,0.0121849263086915,-0.002739606657996774,-0.01185435336083174,XArbitraryZVertical,0.08837182912277518,0.04033755218150788,-0.03826455585670631,0.9945346275854783,0.08699720352888107,-0.1726906895637512,-0.981126606464386,0,0,0,-1
2015-06-06 10:59:44.217,107,1433577582.742747,51.73538937348348,39.26756706136467,92.19784,-1,-1,17.15314215077026,65,-9999,1433577584.206492,1.714654207229614,-23.54880523681641,-39.2559814453125,187.595703125,178.1615142822266,25,113432.563677,0.073333740234375,-0.1716766357421875,-0.993682861328125,113432.555609,-0.1403025167603175,0.1877070504798369,0.1471409818074229,113432.533954,-0.08461084515548663,0.0884394192300024,0.1735607512281646,-0.04294729605317116,0.1477171927690506,0.1707460135221481,0.0121849263086915,-0.002739606657996774,-0.01185435336083174,XArbitraryZVertical,0.08837182912277518,0.04033755218150788,-0.03826455585670631,0.9945346275854783,0.08699720352888107,-0.1726906895637512,-0.981126606464386,0,0,0,-1
2015-06-06 10:59:44.227,108,1433577582.742747,51.73538937348348,39.26756706136467,92.19784,-1,-1,17.15314215077026,65,-9999,1433577584.206492,1.714654207229614,-23.54880523681641,-39.2559814453125,187.595703125,178.1615142822266,25,113432.573411,0.077545166015625,-0.1759796142578125,-0.996063232421875,113432.566442,-0.1398742804570327,0.1612144565879467,0.1396841307552011,113432.555609,-0.08096106625425158,0.09019122034956277,0.172862989860623,-0.05303714424371719,0.09830884635448456,0.1569057404994965,-0.01113569550216198,0.0004488056001719087,-0.00767706660553813,XArbitraryZVertical,0.08798308253767941,0.04138532234026263,-0.03638909899154716,0.9945964336134238,0.08872663974761963,-0.172003373503685,-0.9810924530029297,0,0,0,-1
2015-06-06 10:59:44.237,109,1433577582.742747,51.73538937348348,39.26756706136467,92.19784,-1,-1,17.15314215077026,65,-9999,1433577584.225944,1.714654207229614,-23.82257843017578,-39.6553955078125,187.1459655761719,177.7117767333984,25,113432.583147,0.07940673828125,-0.1829833984375,-1.000213623046875,113432.577276,-0.1405861434164109,0.1322983861040843,0.1261297060711338,113432.566442,-0.07916494003305137,0.09024238510832995,0.1723877218571202,-0.05261106416583061,0.07180165499448776,0.1494510769844055,-0.01545045245438814,-0.0001414688886143267,-0.01251363381743431,XArbitraryZVertical,0.08771050187218404,0.04150004738681028,-0.03550510444403671,0.9946476770629075,0.08878419548273087,-0.1715351641178131,-0.9811692237854004,0,0,0,-1
2015-06-06 10:59:44.247,110,1433577582.742747,51.73538937348348,39.26756706136467,92.19784,-1,-1,17.15314215077026,65,-9999,1433577584.245542,1.783095836639404,-23.75413513183594,-39.6553955078125,187.1396789550781,177.7054901123047,25,113432.592856,0.0833587646484375,-0.17913818359375,-0.9990081787109375,113432.58814,-0.1362678277088474,0.08656764912967968,0.1222335013963479,113432.577276,-0.07752562710742998,0.09013511232082291,0.1720113434380244,-0.05332125723361969,0.04287481680512428,0.1358985900878906,-0.01113957818597555,-0.004815259482711554,-0.01482025533914566,XArbitraryZVertical,0.08748746309263346,0.04152656205979598,-0.03470359292242183,0.9946945003785744,0.08868474513292313,-0.1711643487215042,-0.9812429547309875,0,0,0,-1
2015-06-06 10:59:44.269,111,1433577582.742747,51.73538937348348,39.26756706136467,92.19784,-1,-1,17.15314215077026,65,-9999,1433577584.265385,1.646212339401245,-23.75413513183594,-39.92166137695312,187.1104888916016,177.6763000488281,25,113432.602587,0.0934295654296875,-0.170623779296875,-1.005508422851562,113432.598974,-0.1331418092213124,0.03963023386536014,0.1183106651106611,113432.58814,-0.07596779425360643,0.08966953792808932,0.1718324634750269,-0.04899569228291512,-0.002864913316443563,0.1320045590400696,-0.008823894895613194,-0.011995286680758,-0.0188989844173193,XArbitraryZVertical,0.08735824736647303,0.04136685982451929,-0.03395343839899259,0.9947383995534708,0.08823063224554062,-0.1709881126880646,-0.9813146591186523,0,0,0,-1
2015-06-06 10:59:44.270,112,1433577582.742747,51.73538937348348,39.26756706136467,92.19784,-1,-1,17.15314215077026,65,-9999,1433577584.265385,1.646212339401245,-23.75413513183594,-39.92166137695312,187.1104888916016,177.6763000488281,25,113432.612315,0.10089111328125,-0.1718597412109375,-1.015914916992188,113432.609808,-0.124185864791485,0.01433419825124249,0.0976527908510255,113432.598974,-0.07446471310387476,0.08880193718207663,0.1715563622185589,-0.04586552828550339,-0.04980752989649773,0.1280829757452011,-0.004024629946798086,-0.00842211302369833,-0.0175703726708889,XArbitraryZVertical,0.0871754290025179,0.0410066084996009,-0.03325026297353516,0.9947931054494578,0.08738339692354202,-0.1707160770893097,-0.9814378023147583,0,0,0,-1
2015-06-06 10:59:44.277,113,1433577582.742747,51.73538937348348,39.26756706136467,92.19784,-1,-1,17.15314215077026,65,-9999,1433577584.265385,1.646212339401245,-23.75413513183594,-39.92166137695312,187.1104888916016,177.6763000488281,25,113432.622066,0.10211181640625,-0.174530029296875,-1.020111083984375,113432.620634,-0.1191381092613488,0.01187343740400928,0.06739635139052627,113432.609808,-0.07320046104583615,0.08793479506761308,0.1711105271767728,-0.03691327199339867,-0.07510025054216385,0.1074242442846298,0.006890574004501104,-0.0003470161173027009,-0.0239194929599762,XArbitraryZVertical,0.08691363221483728,0.04063933680401072,-0.03266965691911346,0.9948503195738239,0.08653899282217026,-0.1702767610549927,-0.9815889000892639,0,0,0,-1
2015-06-06 10:59:44.285,114,1433577582.742747,51.73538937348348,39.26756706136467,92.19784,-1,-1,17.15314215077026,65,-9999,1433577584.265385,1.646212339401245,-23.75413513183594,-39.92166137695312,187.1104888916016,177.6763000488281,25,113432.631791,0.0892791748046875,-0.162872314453125,-1.019119262695312,113432.631475,-0.1143886277733015,0.02747822981132857,0.04332643514228111,113432.620634,-0.07227552193945989,0.08722930990250186,0.1707236689007861,-0.03186926245689392,-0.07755190879106522,0.07716599106788635,0.01503890752792358,-0.001964199356734753,-0.03419962897896767,XArbitraryZVertical,0.08669107311968101,0.04033626931025615,-0.03224920830723021,0.9948957894086411,0.08585220575332642,-0.1698955446481705,-0.9817152619361877,0,0,0,-1
2015-06-06 10:59:44.295,115,1433577582.742747,51.73538937348348,39.26756706136467,92.19784,-1,-1,17.15314215077026,65,-9999,1433577584.286229,1.577770709991455,-23.95946502685547,-39.78854370117188,187.0836639404297,177.6494750976562,25,113432.641496,0.078887939453125,-0.1511688232421875,-1.02105712890625,113432.642309,-0.1155329880937085,0.02864655858154633,0.02876586819838188,113432.631475,-0.07166471796389684,0.08672864419507012,0.1704174972193846,-0.0271216556429863,-0.06193692237138748,0.05309426039457321,0.01674663089215755,-0.004936215933412313,-0.03830116242170334,XArbitraryZVertical,0.08651848263398546,0.04011970835694337,-0.03197413593251061,0.9949284475757206,0.0853651836514473,-0.1695938110351562,-0.9818099141120911,0,0,0,-1
2015-06-06 10:59:44.305,116,1433577582.742747,51.73538937348348,39.26756706136467,92.19784,-1,-1,17.15314215077026,65,-9999,1433577584.286229,1.577770709991455,-23.95946502685547,-39.78854370117188,187.0836639404297,177.6494750976562,25,113432.651246,0.0780792236328125,-0.1432037353515625,-1.0147705078125,113432.653143,-0.1117702077895355,0.02142459833746945,0.02392131185941874,113432.642309,-0.07115945011565916,0.0857803134554086,0.1692317702460381,-0.0282951220870018,-0.06077539920806885,0.0385320745408535,-0.005563296843320131,0.01725631952285767,-0.03896703198552132,XArbitraryZVertical,0.0859035587159942,0.03969294434811761,-0.03179089748567747,0.9950047173787456,0.08445123583078384,-0.1684251427650452,-0.9820901155471802,0,0,0,-1
2015-06-06 10:59:44.315,117,1433577582.742747,51.73538937348348,39.26756706136467,92.19784,-1,-1,17.15314215077026,65,-9999,1433577584.305922,1.748873472213745,-23.51459503173828,-39.62213134765625,187.117919921875,177.6837310791016,25,113432.660966,0.0770263671875,-0.1489410400390625,-1.013717651367188,113432.653143,-0.1117702077895355,0.02142459833746945,0.02392131185941874,113432.642309,-0.07115945011565916,0.0857803134554086,0.1692317702460381,-0.0282951220870018,-0.06077539920806885,0.0385320745408535,-0.005563296843320131,0.01725631952285767,-0.03896703198552132,XArbitraryZVertical,0.0859035587159942,0.03969294434811761,-0.03179089748567747,0.9950047173787456,0.08445123583078384,-0.1684251427650452,-0.9820901155471802,0,0,0,-1
2015-06-06 10:59:44.324,118,1433577582.742747,51.73538937348348,39.26756706136467,92.19784,-1,-1,17.15314215077026,65,-9999,1433577584.305922,1.748873472213745,-23.51459503173828,-39.62213134765625,187.117919921875,177.6837310791016,25,113432.670701,0.08258056640625,-0.1515350341796875,-1.008499145507812,113432.663976,-0.1042691482632184,0.008186823507012586,0.01545299222518478,113432.642309,-0.07115945011565916,0.0857803134554086,0.1692317702460381,-0.0282951220870018,-0.06077539920806885,0.0385320745408535,-0.005563296843320131,0.01725631952285767,-0.03896703198552132,XArbitraryZVertical,0.0859035587159942,0.03969294434811761,-0.03179089748567747,0.9950047173787456,0.08445123583078384,-0.1684251427650452,-0.9820901155471802,0,0,0,-1
2015-06-06 10:59:44.350,119,1433577582.742747,51.73538937348348,39.26756706136467,92.19784,-1,-1,17.15314215077026,65,-9999,1433577584.344801,1.13289737701416,-22.96705627441406,-39.55557250976562,185.5749206542969,176.1407318115234,25,113432.680405,0.07958984375,-0.1542816162109375,-1.003814697265625,113432.67481,-0.1090601750642709,0.008155398206149651,0.006891728268907053,113432.663976,-0.07036558757096721,0.08366480013196269,0.1674736633794568,-0.01707247085869312,-0.0812484472990036,0.02521751075983047,-0.005371674429625273,0.01775085367262363,-0.03115753829479218,XArbitraryZVertical,0.08498001499745736,0.03870840454478122,-0.03152598415084026,0.9951312319447859,0.08239804208278656,-0.1666918992996216,-0.9825600981712341,0,0,0,-1
2015-06-06 10:59:44.352,120,1433577582.742747,51.73538937348348,39.26756706136467,92.19784,-1,-1,17.15314215077026,65,-9999,1433577584.344801,1.13289737701416,-22.96705627441406,-39.55557250976562,185.5749206542969,176.1407318115234,25,113432.690142,0.0659942626953125,-0.157440185546875,-0.9982757568359375,113432.685644,-0.125833828874026,-0.0003296993429518097,-0.0006985471539277841,113432.67481,-0.07013226098180199,0.08270227265341798,0.1668145229813284,-0.02187818288803101,-0.08128099888563156,0.0166550949215889,0.001119244960136712,0.01450690440833569,-0.0257508922368288,XArbitraryZVertical,0.08463247466959792,0.03825203231425593,-0.03146531263327557,0.9951804159829595,0.08146131783723831,-0.1660419404506683,-0.98274827003479,0,0,0,-1
2015-06-06 10:59:44.354,121,1433577582.742747,51.73538937348348,39.26756706136467,92.19784,-1,-1,17.15314215077026,65,-9999,1433577584.344801,1.13289737701416,-22.96705627441406,-39.55557250976562,185.5749206542969,176.1407318115234,25,113432.699876,0.057220458984375,-0.15771484375,-0.991790771484375,113432.696478,-0.1668614233633507,-0.0040701090939681,-0.01104839009830273,113432.685644,-0.06997726738700442,0.08165551531126952,0.16612386844231,-0.03866325691342354,-0.08976838737726212,0.009064148180186749,-0.0008520687697455287,0.01107921544462442,-0.02086765132844448,XArbitraryZVertical,0.08426947697872568,0.03775092758377217,-0.03144751933258608,0.9952309160411569,0.080441914498806,-0.1653608381748199,-0.982947051525116,0,0,0,-1
2015-06-06 10:59:44.363,122,1433577582.742747,51.73538937348348,39.26756706136467,92.19784,-1,-1,17.15314215077026,65,-9999,1433577584.344801,1.13289737701416,-22.96705627441406,-39.55557250976562,185.5749206542969,176.1407318115234,25,113432.709581,0.0495452880859375,-0.1594390869140625,-0.9847259521484375,113432.707311,-0.2053222631940571,-0.01504100120454952,-0.02868623968178851,113432.696478,-0.06984037489070435,0.08027261780337569,0.1651531287424728,-0.07969851046800613,-0.09352035075426102,-0.001284613972529769,-0.01310109253972769,0.006963192485272884,-0.01505886577069759,XArbitraryZVertical,0.08376220972597972,0.03708701800823242,-0.03145845600868819,0.9952983526875869,0.07909535616636276,-0.1644033789634705,-0.9832168817520142,0,0,0,-1
2015-06-06 10:59:44.373,123,1433577582.742747,51.73538937348348,39.26756706136467,92.19784,-1,-1,17.15314215077026,65,-9999,1433577584.364948,1.064458847045898,-22.35108184814453,-39.5555419921875,185.2598114013672,175.8256225585938,25,113432.719316,0.0408935546875,-0.16107177734375,-0.974365234375,113432.718165,-0.2424352771970743,-0.0392256996957771,-0.03669622929241984,113432.707311,-0.06980252174984339,0.07864158963386218,0.1637795475820481,-0.1181653141975403,-0.1045077219605446,-0.01892046444118023,-0.02028880454599857,0.005333488341420889,-0.008221985772252083,XArbitraryZVertical,0.08305239370736264,0.03630299262007858,-0.03153677419420112,0.9953842597206993,0.07750926166772842,-0.1630483269691467,-0.9835687875747681,0,0,0,-1
2015-06-06 10:59:44.383,124,1433577582.742747,51.73538937348348,39.26756706136467,92.19784,-1,-1,17.15314215077026,65,-9999,1433577584.364948,1.064458847045898,-22.35108184814453,-39.5555419921875,185.2598114013672,175.8256225585938,25,113432.72905,0.03167724609375,-0.153839111328125,-0.9667816162109375,113432.728989,-0.2675544789148107,-0.0585511944620461,-0.03842675136875333,113432.718165,-0.06984190332581769,0.07666741564380415,0.1620911761691513,-0.1552810519933701,-0.1287129074335098,-0.02692755870521069,-0.02604306675493717,0.001943235984072089,-0.000732991611585021,XArbitraryZVertical,0.08218175601283532,0.03535079510794939,-0.03167296196787561,0.9954864658768902,0.07558835297822952,-0.1613823175430298,-0.9839929342269897,0,0,0,-1
2015-06-06 10:59:44.392,125,1433577582.742747,51.73538937348348,39.26756706136467,92.19784,-1,-1,17.15314215077026,65,-9999,1433577584.383936,1.201342582702637,-21.94043731689453,-39.62213134765625,185.6711120605469,176.2369232177734,25,113432.738782,0.025604248046875,-0.153167724609375,-0.964569091796875,113432.739839,-0.2854703625161008,-0.07544255999198267,-0.03639289524425982,113432.728989,-0.06989268757694013,0.0743367471120308,0.1602083585543926,-0.1803992241621017,-0.1480631977319717,-0.02865420468151569,-0.03242367133498192,-0.001547876978293061,0.01010249461978674,XArbitraryZVertical,0.08120862330642117,0.0342241877243431,-0.03183148156400924,0.995600633415187,0.07331722974777222,-0.1595239043235779,-0.9844677448272705,0,0,0,-1
2015-06-06 10:59:44.402,126,1433577582.742747,51.73538937348348,39.26756706136467,92.19784,-1,-1,17.15314215077026,65,-9999,1433577584.383936,1.201342582702637,-21.94043731689453,-39.62213134765625,185.6711120605469,176.2369232177734,25,113432.748487,0.026275634765625,-0.156829833984375,-0.962249755859375,113432.750673,-0.2940891507519242,-0.07181719880005781,-0.01952123710638982,113432.728989,-0.06989268757694013,0.0743367471120308,0.1602083585543926,-0.1803992241621017,-0.1480631977319717,-0.02865420468151569,-0.03242367133498192,-0.001547876978293061,0.01010249461978674,XArbitraryZVertical,0.08120862330642117,0.0342241877243431,-0.03183148156400924,0.995600633415187,0.07331722974777222,-0.1595239043235779,-0.9844677448272705,0,0,0,-1
2015-06-06 10:59:44.413,127,1433577582.742747,51.73538937348348,39.26756706136467,92.19784,-1,-1,17.15314215077026,65,-9999,1433577584.403685,1.132900714874268,-21.80355834960938,-39.7552490234375,185.7866821289062,176.3524932861328,25,113432.758222,0.026641845703125,-0.1573638916015625,-0.969757080078125,113432.750673,-0.2940891507519242,-0.07181719880005781,-0.01952123710638982,113432.739839,-0.07004072939344025,0.07261202415945045,0.1581014904230182,-0.1983154118061066,-0.164954274892807,-0.02662038058042526,-0.0460391603410244,0.00427593570202589,0.02035664953291416,XArbitraryZVertical,0.08013495397636991,0.03339937920527487,-0.03201622156283692,0.9957097128062694,0.0716434121131897,-0.1574436575174332,-0.9849257469177246,0,0,0,-1
2015-06-06 10:59:44.437,128,1433577582.742747,51.73538937348348,39.26756706136467,92.19784,-1,-1,17.15314215077026,65,-9999,1433577584.403685,1.132900714874268,-21.80355834960938,-39.7552490234375,185.7866821289062,176.3524932861328,25,113432.767957,0.0243682861328125,-0.156402587890625,-0.9689483642578125,113432.761506,-0.2801277950532928,-0.04164651312665912,0.00151880076967219,113432.739839,-0.07004072939344025,0.07261202415945045,0.1581014904230182,-0.1983154118061066,-0.164954274892807,-0.02662038058042526,-0.0460391603410244,0.00427593570202589,0.02035664953291416,XArbitraryZVertical,0.08013495397636991,0.03339937920527487,-0.03201622156283692,0.9957097128062694,0.0716434121131897,-0.1574436575174332,-0.9849257469177246,0,0,0,-1
2015-06-06 10:59:44.439,129,1433577582.742747,51.73538937348348,39.26756706136467,92.19784,-1,-1,17.15314215077026,65,-9999,1433577584.424393,0.7906947135925293,-21.25601959228516,-40.55404663085938,184.8146362304688,175.3804473876953,25,113432.777692,0.0260162353515625,-0.1566162109375,-0.9689483642578125,113432.77234,-0.2614995158604065,0.001767273699376582,0.01908554395205286,113432.761506,-0.06966352343776422,0.06828213814735949,0.1538615563950356,-0.1929685920476913,-0.1311892569065094,0.01129643153399229,-0.04078122973442078,-0.004108687397092581,0.01612677238881588,XArbitraryZVertical,0.07794874563445525,0.0313379423740017,-0.0320796752153157,0.99594820189599,0.06742307543754578,-0.1532552093267441,-0.9858838319778442,0,0,0,-1
2015-06-06 10:59:44.443,130,1433577582.742747,51.73538937348348,39.26756706136467,92.19784,-1,-1,17.15314215077026,65,-9999,1433577584.424393,0.7906947135925293,-21.25601959228516,-40.55404663085938,184.8146362304688,175.3804473876953,25,113432.787427,0.02606201171875,-0.1582489013671875,-0.9734039306640625,113432.783174,-0.2306670346561231,0.0379921234788524,0.03678651045337353,113432.77234,-0.06927035479187299,0.06716007992411621,0.1519568999729186,-0.1743405163288116,-0.08777526766061783,0.02886315248906612,-0.04196799546480179,-0.005029816646128893,0.01729997247457504,XArbitraryZVertical,0.07697632635810552,0.03082980414587631,-0.03196198792340773,0.9960434727885719,0.06633628159761429,-0.1513727754354477,-0.9862483143806458,0,0,0,-1
2015-06-06 10:59:44.451,131,1433577582.742747,51.73538937348348,39.26756706136467,92.19784,-1,-1,17.15314215077026,65,-9999,1433577584.442459,0.4484858512878418,-20.91381072998047,-40.68716430664062,184.0323333740234,174.59814453125,25,113432.79713,0.0266571044921875,-0.153839111328125,-0.9833831787109375,113432.794007,-0.1986140267242565,0.07301934971611958,0.05571013421114957,113432.783174,-0.06869165034466185,0.06640969745766542,0.150339824032463,-0.1435081213712692,-0.05155032128095627,0.04656410962343216,-0.03959612548351288,-0.006842079106718302,0.01759242452681065,XArbitraryZVertical,0.07615027247233158,0.03050805913322066,-0.03173149962653608,0.9961242423823254,0.06561236083507538,-0.1497741341590881,-0.9865407943725586,0,0,0,-1
2015-06-06 10:59:44.460,132,1433577582.742747,51.73538937348348,39.26756706136467,92.19784,-1,-1,17.15314215077026,65,-9999,1433577584.442459,0.4484858512878418,-20.91381072998047,-40.68716430664062,184.0323333740234,174.59814453125,25,113432.806871,0.0304718017578125,-0.1566925048828125,-0.9893951416015625,113432.804846,-0.1722215676893532,0.08753677345035953,0.0586385461458007,113432.794007,-0.0679308898397987,0.06602561009051304,0.1490954670129604,-0.1114553064107895,-0.01652290299534798,0.06548771262168884,-0.03918367251753807,-0.009705206379294395,0.01334718894213438,XArbitraryZVertical,0.07551295168060534,0.03036831359307533,-0.03138925883917734,0.9961878708795443,0.06524568051099777,-0.1485437005758286,-0.9867511391639709,0,0,0,-1
2015-06-06 10:59:44.470,133,1433577582.742747,51.73538937348348,39.26756706136467,92.19784,-1,-1,17.15314215077026,65,-9999,1433577584.461636,0.7564725875854492,-21.01647186279297,-40.52072143554688,185.4253540039062,175.9911651611328,25,113432.816606,0.03826904296875,-0.15673828125,-0.9950408935546875,113432.815681,-0.1542492250729534,0.09961953531604903,0.05899674131241636,113432.804846,-0.06697265702035264,0.06490112071295912,0.1483079108842864,-0.08505821228027344,-0.002035198034718633,0.06842104345560074,-0.03748651221394539,-0.006074280943721533,0.003557119052857161,XArbitraryZVertical,0.07508876943163806,0.02985846397077408,-0.03096812141941057,0.9962485253641775,0.06414362043142319,-0.1477648317813873,-0.986940324306488,0,0,0,-1
2015-06-06 10:59:44.480,134,1433577582.742747,51.73538937348348,39.26756706136467,92.19784,-1,-1,17.15314215077026,65,-9999,1433577584.461636,0.7564725875854492,-21.01647186279297,-40.52072143554688,185.4253540039062,175.9911651611328,25,113432.826341,0.044219970703125,-0.15472412109375,-0.9996490478515625,113432.826513,-0.1350845852365252,0.1129089754716534,0.05938156808993281,113432.815681,-0.0661776018529102,0.06486659358424202,0.1475849600917009,-0.06708605587482452,0.01004775892943144,0.06877922266721725,-0.03364464640617371,-0.009642727673053741,-0.002346285618841648,XArbitraryZVertical,0.07471629476542876,0.02988389791378696,-0.03058594547747161,0.9962875728830759,0.06411644816398621,-0.1470497846603394,-0.987048864364624,0,0,0,-1
2015-06-06 10:59:44.490,135,1433577582.742747,51.73538937348348,39.26756706136467,92.19784,-1,-1,17.15314215077026,65,-9999,1433577584.481007,0.4484858512878418,-21.25601196289062,-40.75372314453125,184.9022064208984,175.468017578125,25,113432.83606,0.0445098876953125,-0.1515655517578125,-1.00262451171875,113432.837347,-0.1146823744415372,0.1261909587762056,0.05493462170171849,113432.826513,-0.06539222116237929,0.06495189816450422,0.1470698915182337,-0.04792170226573944,0.02333748713135719,0.06916401535272598,-0.01998558640480042,-0.008183832280337811,-0.01253021508455276,XArbitraryZVertical,0.07444929857130919,0.02996473712031292,-0.03020047861345943,0.9963168911360811,0.06420555710792542,-0.1465402841567993,-0.9871188402175903,0,0,0,-1
2015-06-06 10:59:44.508,136,1433577582.742747,51.73538937348348,39.26756706136467,92.19784,-1,-1,17.15314215077026,65,-9999,1433577584.501083,0.2773828506469727,-21.22177886962891,-40.85357666015625,184.4993438720703,175.0651550292969,25,113432.84578,0.0510101318359375,-0.153564453125,-1.004928588867188,113432.837347,-0.1146823744415372,0.1261909587762056,0.05493462170171849,113432.826513,-0.06539222116237929,0.06495189816450422,0.1470698915182337,-0.04792170226573944,0.02333748713135719,0.06916401535272598,-0.01998558640480042,-0.008183832280337811,-0.01253021508455276,XArbitraryZVertical,0.07444929857130919,0.02996473712031292,-0.03020047861345943,0.9963168911360811,0.06420555710792542,-0.1465402841567993,-0.9871188402175903,0,0,0,-1
2015-06-06 10:59:44.510,137,1433577582.742747,51.73538937348348,39.26756706136467,92.19784,-1,-1,17.15314215077026,65,-9999,1433577584.501083,0.2773828506469727,-21.22177886962891,-40.85357666015625,184.4993438720703,175.0651550292969,25,113432.855516,0.0555572509765625,-0.1558380126953125,-1.004409790039062,113432.848181,-0.09055520022985533,0.1310688046287947,0.05533516112966641,113432.837347,-0.06456820273319673,0.06468384130965171,0.1468352541891411,-0.02751719579100609,0.03660330548882484,0.06471973657608032,-0.01943328231573105,-0.005257371347397566,-0.01545421872287989,XArbitraryZVertical,0.07431608212499673,0.02986592468622376,-0.0298040200128281,0.9963417420098887,0.06394317001104355,-0.1463081836700439,-0.9871702790260315,0,0,0,-1
2015-06-06 10:59:44.519,138,1433577582.742747,51.73538937348348,39.26756706136467,92.19784,-1,-1,17.15314215077026,65,-9999,1433577584.501083,0.2773828506469727,-21.22177886962891,-40.85357666015625,184.4993438720703,175.0651550292969,25,113432.86525,0.05743408203125,-0.1570587158203125,-1.005325317382812,113432.859014,-0.07244543850120751,0.1323282135082932,0.05925666583480809,113432.848181,-0.06384417020015951,0.06501423209398401,0.1467794157580878,-0.003390207653865218,0.04148134961724281,0.06512024998664856,-0.01325971819460392,-0.007311510853469372,-0.01777132600545883,XArbitraryZVertical,0.07428231517162688,0.03005837351987026,-0.02943202068563118,0.9963495310343859,0.06426984816789627,-0.1462529450654984,-0.9871572852134705,0,0,0,-1
2015-06-06 10:59:44.529,139,1433577582.742747,51.73538937348348,39.26756706136467,92.19784,-1,-1,17.15314215077026,65,-9999,1433577584.520732,0.4827051162719727,-21.42710113525391,-40.32101440429688,185.1904296875,175.7562408447266,25,113432.874955,0.070831298828125,-0.149322509765625,-1.003463745117188,113432.869848,-0.05072043559277711,0.1359961852776594,0.05961219784033367,113432.859014,-0.06306854493803948,0.0651179267494412,0.1471103778107418,0.01472497452050447,0.04273311793804169,0.06904333084821701,-0.008811808191239834,-0.009257675148546696,-0.01730755157768726,XArbitraryZVertical,0.07443701104301798,0.03013324162292503,-0.02903601824889414,0.9963473434402901,0.06436906009912491,-0.1465803384780884,-0.987102210521698,0,0,0,-1
2015-06-06 10:59:44.538,140,1433577582.742747,51.73538937348348,39.26756706136467,92.19784,-1,-1,17.15314215077026,65,-9999,1433577584.520732,0.4827051162719727,-21.42710113525391,-40.32101440429688,185.1904296875,175.7562408447266,25,113432.88469,0.0728759765625,-0.1456756591796875,-1.004486083984375,113432.880712,-0.02798849147618775,0.1493191812629988,0.07096498725123246,113432.869848,-0.06231656109690922,0.06530101462546008,0.1476693424584303,0.03645582497119904,0.04639487341046333,0.06940025091171265,-0.007110346108675003,-0.009925473481416702,-0.01831679418683052,XArbitraryZVertical,0.07470671843527862,0.03024308768361933,-0.02864484915307709,0.9963351516859112,0.0645444244146347,-0.1471332460641861,-0.9870085120201111,0,0,0,-1
2015-06-06 10:59:44.548,141,1433577582.742747,51.73538937348348,39.26756706136467,92.19784,-1,-1,17.15314215077026,65,-9999,1433577584.540655,0.6538114547729492,-21.66664123535156,-39.75521850585938,185.9453125,176.5111236572266,25,113432.894425,0.07464599609375,-0.145904541015625,-1.002853393554688,113432.891546,-0.02239558687091234,0.178232055953553,0.07731769171550747,113432.880712,-0.06151236898599469,0.06590443951462534,0.148313070037354,0.05918741598725319,0.05972198396921158,0.08075238764286041,0.005697547923773527,-0.001552576664835215,-0.01658906228840351,XArbitraryZVertical,0.07502370295320318,0.03056308442081488,-0.0282103853408936,0.9963139645838512,0.06513375043869019,-0.1477699279785156,-0.9868746995925903,0,0,0,-1
2015-06-06 10:59:44.558,142,1433577582.742747,51.73538937348348,39.26756706136467,92.19784,-1,-1,17.15314215077026,65,-9999,1433577584.540655,0.6538114547729492,-21.66664123535156,-39.75521850585938,185.9453125,176.5111236572266,25,113432.90416,0.0702972412109375,-0.147613525390625,-0.996185302734375,113432.90237,-0.03239362623528782,0.196280032344911,0.0869948201685284,113432.891546,-0.06065755767034337,0.06679109148706985,0.1489723741000023,0.06477645039558411,0.0886400118470192,0.08710405230522156,0.006873753853142262,0.002746307756751776,-0.01776696182787418,XArbitraryZVertical,0.07535132633190025,0.03102606116523446,-0.02773958238005385,0.9962881494417027,0.06600221991539001,-0.148421972990036,-0.9867191314697266,0,0,0,-1
2015-06-06 10:59:44.567,143,1433577582.742747,51.73538937348348,39.26756706136467,92.19784,-1,-1,17.15314215077026,65,-9999,1433577584.560359,0.5169277191162109,-21.80352020263672,-39.82177734375,185.6019744873047,176.1677856445312,25,113432.913866,0.0716400146484375,-0.1459197998046875,-0.9908599853515625,113432.913209,-0.04704846908177585,0.2022777374358785,0.09530335013735761,113432.90237,-0.05967426023329529,0.06793347265936116,0.1495474508032886,0.05477438494563103,0.1066938489675522,0.09678001701831818,0.007522412110120058,0.003086108714342117,-0.01629563421010971,XArbitraryZVertical,0.07563803913003782,0.03162289984623297,-0.0271963469994923,0.9962626350274103,0.06712358444929123,-0.1489906460046768,-0.9865577816963196,0,0,0,-1
2015-06-06 10:59:44.587,144,1433577582.742747,51.73538937348348,39.26756706136467,92.19784,-1,-1,17.15314215077026,65,-9999,1433577584.580291,0.3800439834594727,-21.46131134033203,-39.68865966796875,184.8612213134766,175.4270324707031,25,113432.9236,0.0712127685546875,-0.14129638671875,-0.9837646484375,113432.924047,-0.07361989254193245,0.19859964565437,0.09608685213005891,113432.913209,-0.05857789129642285,0.06897145142772042,0.1501039220357795,0.04011935368180275,0.1126917451620102,0.1050885319709778,0.00215539219789207,0.001927361357957125,-0.009780612774193287,XArbitraryZVertical,0.07591166391291981,0.03217257373723378,-0.02660078560559412,0.9962403038355037,0.06814184784889221,-0.1495408862829208,-0.9864047169685364,0,0,0,-1
2015-06-06 10:59:44.588,145,1433577582.742747,51.73538937348348,39.26756706136467,92.19784,-1,-1,17.15314215077026,65,-9999,1433577584.580291,0.3800439834594727,-21.46131134033203,-39.68865966796875,184.8612213134766,175.4270324707031,25,113432.93332,0.074737548828125,-0.1446990966796875,-0.98486328125,113432.934889,-0.1035972327201914,0.1852521485870019,0.08219873336140469,113432.924047,-0.05743422451217301,0.06998821134618029,0.1503953887875239,0.01354764495044947,0.1090139523148537,0.1058719977736473,0.002071069087833166,0.008532683365046978,0.002526725875213742,XArbitraryZVertical,0.07605164051990132,0.03271789673389642,-0.02598711568336115,0.996228064765292,0.0691417008638382,-0.1498290747404099,-0.9862913489341736,0,0,0,-1
2015-06-06 10:59:44.597,146,1433577582.742747,51.73538937348348,39.26756706136467,92.19784,-1,-1,17.15314215077026,65,-9999,1433577584.580291,0.3800439834594727,-21.46131134033203,-39.68865966796875,184.8612213134766,175.4270324707031,25,113432.943071,0.0745086669921875,-0.146270751953125,-0.981292724609375,113432.934889,-0.1035972327201914,0.1852521485870019,0.08219873336140469,113432.924047,-0.05743422451217301,0.06998821134618029,0.1503953887875239,0.01354764495044947,0.1090139523148537,0.1058719977736473,0.002071069087833166,0.008532683365046978,0.002526725875213742,XArbitraryZVertical,0.07605164051990132,0.03271789673389642,-0.02598711568336115,0.996228064765292,0.0691417008638382,-0.1498290747404099,-0.9862913489341736,0,0,0,-1
2015-06-06 10:59:44.606,147,1433577582.742747,51.73538937348348,39.26756706136467,92.19784,-1,-1,17.15314215077026,65,-9999,1433577584.600063,0.5169277191162109,-21.52975463867188,-39.68865966796875,184.8847351074219,175.4505462646484,25,113432.952775,0.07318115234375,-0.138031005859375,-0.9792633056640625,113432.945715,-0.1272935074674984,0.1574708510436223,0.06466581232486802,113432.924047,-0.05743422451217301,0.06998821134618029,0.1503953887875239,0.01354764495044947,0.1090139523148537,0.1058719977736473,0.002071069087833166,0.008532683365046978,0.002526725875213742,XArbitraryZVertical,0.07605164051990132,0.03271789673389642,-0.02598711568336115,0.996228064765292,0.0691417008638382,-0.1498290747404099,-0.9862913489341736,0,0,0,-1
2015-06-06 10:59:44.616,148,1433577582.742747,51.73538937348348,39.26756706136467,92.19784,-1,-1,17.15314215077026,65,-9999,1433577584.600063,0.5169277191162109,-21.52975463867188,-39.68865966796875,184.8847351074219,175.4505462646484,25,113432.96251,0.0690460205078125,-0.133514404296875,-0.9854278564453125,113432.956548,-0.1475103622506169,0.1357405218130117,0.05814213291860993,113432.945715,-0.05549683784084719,0.07171797724990324,0.1499355956245443,-0.0401303693652153,0.06788962334394455,0.07445000857114792,0.003656089771538973,0.003103699069470167,0.00494618434458971,XArbitraryZVertical,0.07581252780716778,0.03366015616266584,-0.02496500033996183,0.9962410367338898,0.07085257768630981,-0.1493744552135468,-0.9862388968467712,0,0,0,-1
2015-06-06 10:59:44.626,149,1433577582.742747,51.73538937348348,39.26756706136467,92.19784,-1,-1,17.15314215077026,65,-9999,1433577584.619813,0.4484891891479492,-21.39287567138672,-39.28924560546875,184.8667755126953,175.4325866699219,25,113432.972245,0.065032958984375,-0.1355743408203125,-0.990142822265625,113432.967382,-0.1581435655349763,0.1224494837607533,0.04697310162292661,113432.956548,-0.05471217633283799,0.07221505719212556,0.1491483390732473,-0.060355544090271,0.04616140574216843,0.06792543828487396,0.00182988157030195,0.01056497450917959,0.007057245820760727,XArbitraryZVertical,0.07541332457466234,0.03394929505180695,-0.02457027113309683,0.9962713373466717,0.07135126739740372,-0.1485959738492966,-0.9863205552101135,0,0,0,-1
2015-06-06 10:59:44.636,150,1433577582.742747,51.73538937348348,39.26756706136467,92.19784,-1,-1,17.15314215077026,65,-9999,1433577584.619813,0.4484891891479492,-21.39287567138672,-39.28924560546875,184.8667755126953,175.4325866699219,25,113432.981965,0.0645599365234375,-0.136627197265625,-0.9933319091796875,113432.978216,-0.1568782977010797,0.1224313742653408,0.03729117947994354,113432.967382,-0.05400759769768521,0.07243060867525049,0.1480911862507052,-0.07100049406290054,0.03286843374371529,0.05675588548183441,-0.00252917967736721,0.01403607707470655,0.001033418113365769,XArbitraryZVertical,0.07487742809473769,0.03409887832556475,-0.02423130475262375,0.9963149507705076,0.07157520204782486,-0.1475504785776138,-0.9864612817764282,0,0,0,-1
2015-06-06 10:59:44.645,151,1433577582.742747,51.73538937348348,39.26756706136467,92.19784,-1,-1,17.15314215077026,65,-9999,1433577584.63959,0.7222528457641602,-21.66664123535156,-39.28924560546875,184.8822937011719,175.4481048583984,25,113432.991686,0.061553955078125,-0.1353302001953125,-0.995086669921875,113432.98905,-0.1460394983805662,0.1296597260960338,0.02780579862540832,113432.978216,-0.05340639445119048,0.07254250802495565,0.1470632748618178,-0.06974495947360992,0.03284492716193199,0.047074094414711,-0.00666357995942235,0.01095940265804529,-0.003538814373314381,XArbitraryZVertical,0.07435651267381155,0.03419217871163412,-0.02394721231680123,0.9963576340652951,0.07169654220342636,-0.1465337425470352,-0.9866040349006653,0,0,0,-1
2015-06-06 10:59:44.669,152,1433577582.742747,51.73538937348348,39.26756706136467,92.19784,-1,-1,17.15314215077026,65,-9999,1433577584.659323,0.7564725875854492,-21.22177124023438,-39.322509765625,184.8900604248047,175.4558715820312,25,113433.001421,0.062896728515625,-0.131744384765625,-1.002731323242188,113432.999896,-0.137697146265893,0.1393046302998648,0.02557540121246695,113432.98905,-0.0528894601667693,0.07271616852352364,0.1462005627417466,-0.05891463533043861,0.04006743431091309,0.03758900612592697,-0.007317093200981617,0.009053091518580914,-0.006614651996642351,XArbitraryZVertical,0.07391999707440576,0.0343104264288768,-0.02369969725145261,0.9963919675614489,0.07187703251838684,-0.1456802934408188,-0.9867172837257385,0,0,0,-1
2015-06-06 10:59:44.670,153,1433577582.742747,51.73538937348348,39.26756706136467,92.19784,-1,-1,17.15314215077026,65,-9999,1433577584.659323,0.7564725875854492,-21.22177124023438,-39.322509765625,184.8900604248047,175.4558715820312,25,113433.011155,0.0627899169921875,-0.131195068359375,-1.003082275390625,113433.010717,-0.1196236035280702,0.1477583025481033,0.01742106827075334,113432.999896,-0.05241774439587501,0.072903020974617,0.1453802310068795,-0.05058113858103752,0.04970400407910347,0.03535924851894379,-0.01051612384617329,0.009538459591567516,-0.008264003321528435,XArbitraryZVertical,0.07350545860169631,0.03443275097475796,-0.02347346963613419,0.9964237700091781,0.07207007706165314,-0.1448686569929123,-0.9868226647377014,0,0,0,-1
2015-06-06 10:59:44.675,154,1433577582.742747,51.73538937348348,39.26756706136467,92.19784,-1,-1,17.15314215077026,65,-9999,1433577584.659323,0.7564725875854492,-21.22177124023438,-39.322509765625,184.8900604248047,175.4558715820312,25,113433.02089,0.063507080078125,-0.1302490234375,-1.004241943359375,113433.021581,-0.1064699845880599,0.1598202917572902,0.01406814845834358,113433.010717,-0.0520255356160692,0.0732233750596373,0.1446690571579631,-0.03251925483345985,0.05814987048506737,0.02720528282225132,-0.009496998973190784,0.01242056675255299,-0.01582929491996765,XArbitraryZVertical,0.07314816205010931,0.0346169304855982,-0.02327993975272381,0.9964482218949228,0.07239373028278351,-0.1441649496555328,-0.9869020581245422,0,0,0,-1
2015-06-06 10:59:44.685,155,1433577582.742747,51.73538937348348,39.26756706136467,92.19784,-1,-1,17.15314215077026,65,-9999,1433577584.679365,1.372445344924927,-21.01644897460938,-39.25595092773438,184.9641418457031,175.5299530029297,25,113433.030626,0.06201171875,-0.1304779052734375,-1.00341796875,113433.032415,-0.09441705012657924,0.1634600340191015,0.0130641367273837,113433.021581,-0.05167516660766237,0.07343457611181689,0.1437813669286888,-0.01938881166279316,0.07019608467817307,0.0238531157374382,-0.009104440920054913,0.01303745433688164,-0.01722798682749271,XArbitraryZVertical,0.07270232090903281,0.0347475727001445,-0.02311472410729998,0.9964801494537306,0.07261151820421219,-0.1432864814996719,-0.9870139360427856,0,0,0,-1
2015-06-06 10:59:44.694,156,1433577582.742747,51.73538937348348,39.26756706136467,92.19784,-1,-1,17.15314215077026,65,-9999,1433577584.679365,1.372445344924927,-21.01644897460938,-39.25595092773438,184.9641418457031,175.5299530029297,25,113433.040331,0.0626068115234375,-0.13006591796875,-1.005523681640625,113433.032415,-0.09441705012657924,0.1634600340191015,0.0130641367273837,113433.021581,-0.05167516660766237,0.07343457611181689,0.1437813669286888,-0.01938881166279316,0.07019608467817307,0.0238531157374382,-0.009104440920054913,0.01303745433688164,-0.01722798682749271,XArbitraryZVertical,0.07270232090903281,0.0347475727001445,-0.02311472410729998,0.9964801494537306,0.07261151820421219,-0.1432864814996719,-0.9870139360427856,0,0,0,-1
2015-06-06 10:59:44.704,157,1433577582.742747,51.73538937348348,39.26756706136467,92.19784,-1,-1,17.15314215077026,65,-9999,1433577584.698811,1.372445344924927,-20.94800567626953,-39.18936157226562,185.0326538085938,175.5984649658203,25,113433.050065,0.06329345703125,-0.130035400390625,-1.00396728515625,113433.043249,-0.09678087191013357,0.1610386879560015,0.009373261772642886,113433.021581,-0.05167516660766237,0.07343457611181689,0.1437813669286888,-0.01938881166279316,0.07019608467817307,0.0238531157374382,-0.009104440920054913,0.01303745433688164,-0.01722798682749271,XArbitraryZVertical,0.07270232090903281,0.0347475727001445,-0.02311472410729998,0.9964801494537306,0.07261151820421219,-0.1432864814996719,-0.9870139360427856,0,0,0,-1
2015-06-06 10:59:44.713,158,1433577582.742747,51.73538937348348,39.26756706136467,92.19784,-1,-1,17.15314215077026,65,-9999,1433577584.698811,1.372445344924927,-20.94800567626953,-39.18936157226562,185.0326538085938,175.5984649658203,25,113433.0598,0.0638275146484375,-0.1318511962890625,-1.00341796875,113433.054061,-0.1038574235586921,0.1489820250689947,0.007967911665408074,113433.043249,-0.05112596222891769,0.07441428704082888,0.142962504094374,-0.009722023271024227,0.0713966116309166,0.0191593412309885,-0.01098036114126444,0.01241009868681431,-0.01846466027200222,XArbitraryZVertical,0.07229602051862528,0.0352671873025535,-0.02282141113796843,0.9964982158090434,0.07358717173337936,-0.1424760222434998,-0.9870589971542358,0,0,0,-1
2015-06-06 10:59:44.723,159,1433577582.742747,51.73538937348348,39.26756706136467,92.19784,-1,-1,17.15314215077026,65,-9999,1433577584.718943,1.748873472213745,-21.25598907470703,-39.42233276367188,185.1365966796875,175.7024078369141,25,113433.069536,0.0657501220703125,-0.1348876953125,-1.002548217773438,113433.064916,-0.1132839485531366,0.1344986897967078,0.0004466121148062883,113433.054061,-0.05088388533289154,0.07481965808400251,0.1425192988214367,-0.01680931448936462,0.05933131277561188,0.01775453053414822,-0.01069854758679867,0.01200191862881184,-0.01687530241906643,XArbitraryZVertical,0.0720755536317275,0.03548412318087499,-0.02269480954440846,0.9965093763685847,0.07399200648069382,-0.1420373171567917,-0.9870919585227966,0,0,0,-1
