loggingTime,loggingSample,locationTimestamp_since1970,locationLatitude,locationLongitude,locationAltitude,locationSpeed,locationCourse,locationVerticalAccuracy,locationHorizontalAccuracy,locationFloor,locationHeadingTimestamp_since1970,locationHeadingX,locationHeadingY,locationHeadingZ,locationTrueHeading,locationMagneticHeading,locationHeadingAccuracy,accelerometerTimestamp_sinceReboot,accelerometerAccelerationX,accelerometerAccelerationY,accelerometerAccelerationZ,gyroTimestamp_sinceReboot,gyroRotationX,gyroRotationY,gyroRotationZ,motionTimestamp_sinceReboot,motionYaw,motionRoll,motionPitch,motionRotationRateX,motionRotationRateY,motionRotationRateZ,motionUserAccelerationX,motionUserAccelerationY,motionUserAccelerationZ,motionAttitudeReferenceFrame,motionQuaternionX,motionQuaternionY,motionQuaternionZ,motionQuaternionW,motionGravityX,motionGravityY,motionGravityZ,motionMagneticFieldX,motionMagneticFieldY,motionMagneticFieldZ,motionMagneticFieldCalibrationAccuracy
2015-06-06 10:39:44.735,1,1433576384.568241,51.73554119193157,39.26755003634772,105.2365,0.5,61.875,32,10,-9999,1433576384.707002,-17.70282363891602,116.5504989624023,338.9273986816406,321.3418273925781,311.9076538085938,-1,112892.1351779167,0.152984619140625,-0.2685394287109375,-1.002120971679688,112892.1290629167,-0.3801731698276455,-0.4082018750362934,-0.1917638437683546,112892.1182289167,-0.1410817689591107,0.1516947487206587,0.2596915389106969,-0.353052943944931,-0.3990874886512756,-0.1614472568035126,-0.001271288609132171,0.02408591285347939,0.02455403283238411,XArbitraryZVertical,0.1340836793835123,0.06585002022848735,-0.05990113821844095,0.986963624151885,0.1460466831922531,-0.2567824423313141,-0.9553706645965576,0,0,0,-1
2015-06-06 10:39:44.746,2,1433576384.568241,51.73554119193157,39.26755003634772,105.2365,0.5,61.875,32,10,-9999,1433576384.707002,-17.70282363891602,116.5504989624023,338.9273986816406,321.3418273925781,311.9076538085938,-1,112892.1448809167,0.1639556884765625,-0.25897216796875,-1.015579223632812,112892.1398969167,-0.2325546832367713,-0.407817314574886,-0.1919470692513521,112892.1182289167,-0.1410817689591107,0.1516947487206587,0.2596915389106969,-0.353052943944931,-0.3990874886512756,-0.1614472568035126,-0.001271288609132171,0.02408591285347939,0.02455403283238411,XArbitraryZVertical,0.1340836793835123,0.06585002022848735,-0.05990113821844095,0.986963624151885,0.1460466831922531,-0.2567824423313141,-0.9553706645965576,0,0,0,-1
2015-06-06 10:39:44.766,3,1433576384.568241,51.73554119193157,39.26755003634772,105.2365,0.5,61.875,32,10,-9999,1433576384.746326,-18.59256553649902,116.6189422607422,338.6611022949219,329.1631164550781,319.7289428710938,-1,112892.1546179167,0.1718902587890625,-0.2684326171875,-1.010208129882812,112892.1507299167,-0.0942143835676242,-0.3497012806349588,-0.197925333266362,112892.1398969167,-0.1443760321834135,0.1420136390147411,0.2538814262933852,-0.1469648629426956,-0.4984959959983826,-0.1869155317544937,0.01598483510315418,-0.01737658120691776,-0.04392042756080627,XArbitraryZVertical,0.1310280716553738,0.06108496079071098,-0.06240619254070738,0.9875250574724896,0.136999785900116,-0.2511628568172455,-0.9582005143165588,0,0,0,-1
2015-06-06 10:39:44.767,4,1433576384.568241,51.73554119193157,39.26755003634772,105.2365,0.5,61.875,32,10,-9999,1433576384.746326,-18.59256553649902,116.6189422607422,338.6611022949219,329.1631164550781,319.7289428710938,-1,112892.1643529167,0.1667938232421875,-0.2544708251953125,-0.99298095703125,112892.1615949167,-0.04331098880795865,-0.2581817497743858,-0.2340963871918182,112892.1507299167,-0.1464137798381548,0.1375627948827812,0.2531877999849702,-0.008624657057225704,-0.4403798878192902,-0.1928938031196594,0.03119819052517414,-0.008480772376060486,-0.05660607293248177,XArbitraryZVertical,0.1306067207289705,0.05878187030589058,-0.06373067760518188,0.9876360549087658,0.1327574998140335,-0.2504914104938507,-0.9589731693267822,0,0,0,-1
2015-06-06 10:39:44.768,5,1433576384.568241,51.73554119193157,39.26755003634772,105.2365,0.5,61.875,32,10,-9999,1433576384.746326,-18.59256553649902,116.6189422607422,338.6611022949219,329.1631164550781,319.7289428710938,-1,112892.1740569167,0.1506500244140625,-0.2262115478515625,-0.9859161376953125,112892.1724079167,-0.04358795756132689,-0.2269604470509509,-0.2654077047600978,112892.1615949167,-0.1489072055900471,0.1341527808491151,0.2532243980374946,0.04227855056524277,-0.3488601446151733,-0.2290648519992828,0.04240486398339272,-0.01790579035878181,-0.05079693347215652,XArbitraryZVertical,0.1305870029443028,0.05693361989533913,-0.06518325715785733,0.9876521354069612,0.1294853985309601,-0.2505268156528473,-0.9594112038612366,0,0,0,-1
2015-06-06 10:39:44.769,6,1433576384.568241,51.73554119193157,39.26755003634772,105.2365,0.5,61.875,32,10,-9999,1433576384.746326,-18.59256553649902,116.6189422607422,338.6611022949219,329.1631164550781,319.7289428710938,-1,112892.1837919167,0.1303558349609375,-0.233917236328125,-0.973907470703125,112892.1832589167,-0.08288050260046498,-0.2572275391558104,-0.3001715443655562,112892.1724079167,-0.1517741480328915,0.1314034550907275,0.253339301664935,0.0420013964176178,-0.3176386654376984,-0.2603762149810791,0.0399504192173481,-0.003832760499790311,-0.03324593603610992,XArbitraryZVertical,0.1306334758737779,0.05538397017639062,-0.06677424280580647,0.9876278202472565,0.1268434077501297,-0.2506380677223206,-0.9597350358963013,0,0,0,-1
2015-06-06 10:39:44.770,7,1433576384.568241,51.73554119193157,39.26755003634772,105.2365,0.5,61.875,32,10,-9999,1433576384.746326,-18.59256553649902,116.6189422607422,338.6611022949219,329.1631164550781,319.7289428710938,-1,112892.1935259167,0.12445068359375,-0.2444610595703125,-0.9608306884765625,112892.1940959167,-0.1403115715080238,-0.2839560891202817,-0.3460990889445176,112892.1832589167,-0.1550776927651825,0.1289484772159855,0.2524966602770884,0.002703616628423333,-0.3479019999504089,-0.2951411306858063,0.0261360164731741,0.02361068315804005,-0.02566350623965263,XArbitraryZVertical,0.1302251443729913,0.0539916329997317,-0.06859685437000154,0.9876339336563912,0.1245140060782433,-0.2498222291469574,-0.9602526426315308,0,0,0,-1
2015-06-06 10:39:44.774,8,1433576384.568241,51.73554119193157,39.26755003634772,105.2365,0.5,61.875,32,10,-9999,1433576384.746326,-18.59256553649902,116.6189422607422,338.6611022949219,329.1631164550781,319.7289428710938,-1,112892.2032589167,0.122894287109375,-0.247344970703125,-0.9496917724609375,112892.2049259167,-0.1991218915441346,-0.2962620238853198,-0.3992211632083282,112892.1940959167,-0.1586760860121713,0.1258394065715015,0.2516162508818376,-0.05472772568464279,-0.3746302425861359,-0.3410686552524567,0.002895207842811942,0.004508581478148699,2.225769640062936e-05,XArbitraryZVertical,0.1297783168065842,0.05226007463055341,-0.07060794516079311,0.987644162219688,0.1215554773807526,-0.2489696443080902,-0.9608529210090637,0,0,0,-1
2015-06-06 10:39:44.783,9,1433576384.568241,51.73554119193157,39.26755003634772,105.2365,0.5,61.875,32,10,-9999,1433576384.746326,-18.59256553649902,116.6189422607422,338.6611022949219,329.1631164550781,319.7289428710938,-1,112892.2129659167,0.1168060302734375,-0.248260498046875,-0.9425048828125,112892.2049259167,-0.1991218915441346,-0.2962620238853198,-0.3992211632083282,112892.1940959167,-0.1586760860121713,0.1258394065715015,0.2516162508818376,-0.05472772568464279,-0.3746302425861359,-0.3410686552524567,0.002895207842811942,0.004508581478148699,2.225769640062936e-05,XArbitraryZVertical,0.1297783168065842,0.05226007463055341,-0.07060794516079311,0.987644162219688,0.1215554773807526,-0.2489696443080902,-0.9608529210090637,0,0,0,-1
2015-06-06 10:39:44.793,10,1433576384.568241,51.73554119193157,39.26755003634772,105.2365,0.5,61.875,32,10,-9999,1433576384.785487,-19.14009666442871,117.0295867919922,337.9954223632812,333.5813598632812,324.1471862792969,-1,112892.2227019167,0.1087188720703125,-0.239990234375,-0.9345855712890625,112892.2157629167,-0.2580302159083603,-0.3037433760195704,-0.4474600652973695,112892.1940959167,-0.1586760860121713,0.1258394065715015,0.2516162508818376,-0.05472772568464279,-0.3746302425861359,-0.3410686552524567,0.002895207842811942,0.004508581478148699,2.225769640062936e-05,XArbitraryZVertical,0.1297783168065842,0.05226007463055341,-0.07060794516079311,0.987644162219688,0.1215554773807526,-0.2489696443080902,-0.9608529210090637,0,0,0,-1
2015-06-06 10:39:44.803,11,1433576384.568241,51.73554119193157,39.26755003634772,105.2365,0.5,61.875,32,10,-9999,1433576384.785487,-19.14009666442871,117.0295867919922,337.9954223632812,333.5813598632812,324.1471862792969,-1,112892.2324369167,0.107025146484375,-0.23809814453125,-0.9264373779296875,112892.2265969167,-0.3002937834595908,-0.2990998883429082,-0.4747460148779943,112892.2157629167,-0.1673240041640298,0.1195816660027694,0.2478685434582332,-0.1724458783864975,-0.3944169282913208,-0.4424296319484711,0.001155163627117872,-0.002922293962910771,0.02000955492258072,XArbitraryZVertical,0.1279198704758057,0.04877794506484012,-0.07541438001885173,0.9877094158197931,0.1156508699059486,-0.2453382015228271,-0.9625144600868225,0,0,0,-1
2015-06-06 10:39:44.824,12,1433576384.568241,51.73554119193157,39.26755003634772,105.2365,0.5,61.875,32,10,-9999,1433576384.785487,-19.14009666442871,117.0295867919922,337.9954223632812,333.5813598632812,324.1471862792969,-1,112892.2421409167,0.1058349609375,-0.23626708984375,-0.9261627197265625,112892.2374309167,-0.3283366034220161,-0.2787461470797596,-0.4895787568852997,112892.2265969167,-0.1722057282568628,0.1165171103594179,0.2450832257555177,-0.2147096395492554,-0.3897732496261597,-0.4697156250476837,-0.004060781095176935,0.002646829932928085,0.02895374037325382,XArbitraryZVertical,0.1265453665477513,0.04708093514646433,-0.07811598701492643,0.9877588513011228,0.1127796545624733,-0.2426370680332184,-0.9635393023490906,0,0,0,-1
2015-06-06 10:39:44.825,13,1433576384.568241,51.73554119193157,39.26755003634772,105.2365,0.5,61.875,32,10,-9999,1433576384.785487,-19.14009666442871,117.0295867919922,337.9954223632812,333.5813598632812,324.1471862792969,-1,112892.2518609167,0.107086181640625,-0.2405242919921875,-0.915435791015625,112892.2482649167,-0.3609307656873869,-0.2776635720966424,-0.5058296321730722,112892.2374309167,-0.1772316378850307,0.1136872510822898,0.2419641075543433,-0.2427526414394379,-0.3694193363189697,-0.4845483601093292,-0.003112697508186102,0.001511834445409477,0.03816446289420128,XArbitraryZVertical,0.1250106167318451,0.04551290784245259,-0.08088140925367998,0.9878052027404933,0.1101378425955772,-0.2396099716424942,-0.9646018147468567,0,0,0,-1
2015-06-06 10:39:44.832,14,1433576384.568241,51.73554119193157,39.26755003634772,105.2365,0.5,61.875,32,10,-9999,1433576384.825155,-19.8929557800293,117.0980224609375,337.8622741699219,340.8057556152344,331.37158203125,-1,112892.2616109167,0.1138458251953125,-0.2432098388671875,-0.911285400390625,112892.2590979167,-0.4140459157323633,-0.2850304083040197,-0.5091127771649219,112892.2482649167,-0.1824148171397466,0.110936068938834,0.2384858140740338,-0.2753469049930573,-0.3683366179466248,-0.5007992386817932,-0.001740292180329561,-3.55216434400063e-05,0.0395609512925148,XArbitraryZVertical,0.1232975055038614,0.04399873889646476,-0.0837274429845431,0.9878519886113083,0.1075752526521683,-0.2362315654754639,-0.9657236933708191,0,0,0,-1
2015-06-06 10:39:44.841,15,1433576384.568241,51.73554119193157,39.26755003634772,105.2365,0.5,61.875,32,10,-9999,1433576384.825155,-19.8929557800293,117.0980224609375,337.8622741699219,340.8057556152344,331.37158203125,-1,112892.2713159167,0.110626220703125,-0.2383575439453125,-0.9080810546875,112892.2699359167,-0.4609524383280379,-0.307999906389844,-0.5002859960479632,112892.2590979167,-0.1876329796374679,0.10812946947828,0.2345685628722879,-0.328461617231369,-0.3757031261920929,-0.5040823817253113,0.002122687175869942,-0.008100907318294048,0.05149855837225914,XArbitraryZVertical,0.1213582572498317,0.04248527972615704,-0.08660389655041134,0.9879103904232205,0.1049634963274002,-0.2324233800172806,-0.9669343233108521,0,0,0,-1
2015-06-06 10:39:44.851,16,1433576384.568241,51.73554119193157,39.26755003634772,105.2365,0.5,61.875,32,10,-9999,1433576384.825155,-19.8929557800293,117.0980224609375,337.8622741699219,340.8057556152344,331.37158203125,-1,112892.2810509167,0.114654541015625,-0.2364654541015625,-0.9090118408203125,112892.2807659167,-0.5017030640639943,-0.3429616188642953,-0.4793245214240586,112892.2699359167,-0.1927170582424843,0.1050522060315817,0.2300793397061307,-0.3753683269023895,-0.3986724317073822,-0.4952556192874908,0.01174995303153992,-0.01515506580471992,0.05699526891112328,XArbitraryZVertical,0.1191138383316741,0.04088470622534471,-0.0894432106406863,0.9879981003954661,0.1020958721637726,-0.2280547767877579,-0.9682806730270386,0,0,0,-1
2015-06-06 10:39:44.861,17,1433576384.568241,51.73554119193157,39.26755003634772,105.2365,0.5,61.875,32,10,-9999,1433576384.825155,-19.8929557800293,117.0980224609375,337.8622741699219,340.8057556152344,331.37158203125,-1,112892.2907859167,0.120941162109375,-0.2363128662109375,-0.910797119140625,112892.2915989167,-0.5294785026529758,-0.3574156593645914,-0.4519578780624043,112892.2807659167,-0.197557436335728,0.101543849305942,0.2251745920696993,-0.4161191582679749,-0.433633953332901,-0.4742941558361053,0.01181584410369396,-0.01508099399507046,0.06165297701954842,XArbitraryZVertical,0.116631049939972,0.03911754686436505,-0.0921935481009168,0.988113032707179,0.09881037473678589,-0.2232765555381775,-0.9697340130805969,0,0,0,-1
2015-06-06 10:39:44.871,18,1433576384.568241,51.73554119193157,39.26755003634772,105.2365,0.5,61.875,32,10,-9999,1433576384.86531,-20.33782958984375,117.3375701904297,338.0286865234375,349.3699951171875,339.9358215332031,-1,112892.300601125,0.122100830078125,-0.2303466796875,-0.908721923828125,112892.302536125,-0.5290872842888432,-0.3188024867195325,-0.406811438631163,112892.2915989167,-0.202109606206499,0.09773053780982738,0.21999268013255,-0.4438944756984711,-0.4480873346328735,-0.4469275772571564,0.02571777626872063,-0.0180903859436512,0.06044510379433632,XArbitraryZVertical,0.1139821877567371,0.03724176765601223,-0.09481883704593964,0.9882461736618563,0.09522338211536407,-0.2182224839925766,-0.9712422490119934,0,0,0,-1
2015-06-06 10:39:44.880,19,1433576384.568241,51.73554119193157,39.26755003634772,105.2365,0.5,61.875,32,10,-9999,1433576384.86531,-20.33782958984375,117.3375701904297,338.0286865234375,349.3699951171875,339.9358215332031,-1,112892.310329125,0.1224212646484375,-0.2263946533203125,-0.909393310546875,112892.302536125,-0.5290872842888432,-0.3188024867195325,-0.406811438631163,112892.2915989167,-0.202109606206499,0.09773053780982738,0.21999268013255,-0.4438944756984711,-0.4480873346328735,-0.4469275772571564,0.02571777626872063,-0.0180903859436512,0.06044510379433632,XArbitraryZVertical,0.1139821877567371,0.03724176765601223,-0.09481883704593964,0.9882461736618563,0.09522338211536407,-0.2182224839925766,-0.9712422490119934,0,0,0,-1
2015-06-06 10:39:44.904,20,1433576384.568241,51.73554119193157,39.26755003634772,105.2365,0.5,61.875,32,10,-9999,1433576384.86531,-20.33782958984375,117.3375701904297,338.0286865234375,349.3699951171875,339.9358215332031,-1,112892.320065125,0.12176513671875,-0.223480224609375,-0.91461181640625,112892.313400125,-0.4798491641588042,-0.234291330583612,-0.344834886375057,112892.2915989167,-0.202109606206499,0.09773053780982738,0.21999268013255,-0.4438944756984711,-0.4480873346328735,-0.4469275772571564,0.02571777626872063,-0.0180903859436512,0.06044510379433632,XArbitraryZVertical,0.1139821877567371,0.03724176765601223,-0.09481883704593964,0.9882461736618563,0.09522338211536407,-0.2182224839925766,-0.9712422490119934,0,0,0,-1
2015-06-06 10:39:44.905,21,1433576384.568241,51.73554119193157,39.26755003634772,105.2365,0.5,61.875,32,10,-9999,1433576384.86531,-20.33782958984375,117.3375701904297,338.0286865234375,349.3699951171875,339.9358215332031,-1,112892.329768125,0.124298095703125,-0.224945068359375,-0.9322967529296875,112892.324234125,-0.4128538848284438,-0.1196638172605304,-0.2908640626718382,112892.313400125,-0.2097120603029548,0.09100879380670364,0.2099746910755574,-0.3942655026912689,-0.3249626159667969,-0.339804619550705,0.03353419154882431,-0.01795950718224049,0.06459533423185349,XArbitraryZVertical,0.1088459462484088,0.03403289853989286,-0.09923916630653677,0.9885069092692504,0.08888707309961319,-0.2084351480007172,-0.9739886522293091,0,0,0,-1
2015-06-06 10:39:44.910,22,1433576384.568241,51.73554119193157,39.26755003634772,105.2365,0.5,61.875,32,10,-9999,1433576384.904312,-21.05646324157715,117.0980377197266,338.3282165527344,358.5232849121094,349.089111328125,-1,112892.339504125,0.1234130859375,-0.2275390625,-0.9504241943359375,112892.335068125,-0.3628783353925619,0.003327353465945,-0.2443679332001448,112892.324234125,-0.2126688583648185,0.08901332460079596,0.2059808956121682,-0.3272703886032104,-0.210334911942482,-0.2858337759971619,0.03474849835038185,-0.01895280554890633,0.06037363782525063,XArbitraryZVertical,0.1068236571174638,0.03310556252473529,-0.1009189089567698,0.9885889448223398,0.08701664209365845,-0.204527422785759,-0.9749854803085327,0,0,0,-1
2015-06-06 10:39:44.920,23,1433576384.568241,51.73554119193157,39.26755003634772,105.2365,0.5,61.875,32,10,-9999,1433576384.904312,-21.05646324157715,117.0980377197266,338.3282165527344,358.5232849121094,349.089111328125,-1,112892.349224125,0.1211395263671875,-0.226593017578125,-0.963775634765625,112892.345902125,-0.345672983170105,0.0551969430690913,-0.2109987910575609,112892.335068125,-0.2153313442270063,0.0891875709051915,0.2032623176954418,-0.2772888243198395,-0.08733659237623215,-0.2393386512994766,0.03706236556172371,-0.02307951264083385,0.04322373494505882,XArbitraryZVertical,0.1055341908409193,0.0332007529371643,-0.1023003932585371,0.9885822545985271,0.08723572641611099,-0.201865553855896,-0.9755204916000366,0,0,0,-1
2015-06-06 10:39:44.929,24,1433576384.568241,51.73554119193157,39.26755003634772,105.2365,0.5,61.875,32,10,-9999,1433576384.904312,-21.05646324157715,117.0980377197266,338.3282165527344,358.5232849121094,349.089111328125,-1,112892.358974125,0.1138916015625,-0.2300262451171875,-0.972412109375,112892.356735125,-0.3448822906424605,0.07211547284214669,-0.180551402946903,112892.345902125,-0.2174306651957298,0.08911287936577265,0.200231393002631,-0.2600835859775543,-0.03546690940856934,-0.2059695273637772,0.03619616851210594,-0.02864295616745949,0.02570773847401142,XArbitraryZVertical,0.1040684908832652,0.0332232330554429,-0.1034252585965213,0.9886198368811274,0.08721691370010376,-0.1988961100578308,-0.9761319160461426,0,0,0,-1
2015-06-06 10:39:44.939,25,1433576384.568241,51.73554119193157,39.26755003634772,105.2365,0.5,61.875,32,10,-9999,1433576384.904312,-21.05646324157715,117.0980377197266,338.3282165527344,358.5232849121094,349.089111328125,-1,112892.368679125,0.11907958984375,-0.2300262451171875,-0.979095458984375,112892.367568125,-0.3427661428402834,0.08300913328111581,-0.1549770669988721,112892.356735125,-0.2191807090387057,0.08921813620958804,0.1972449478258663,-0.2592930793762207,-0.01854817941784859,-0.1755221337080002,0.03376733139157295,-0.03062457218766212,0.01293438766151667,XArbitraryZVertical,0.1026282597448094,0.03335309730622659,-0.1043668531650284,0.9886670679062106,0.08737219125032425,-0.1959684491157532,-0.9767100214958191,0,0,0,-1
2015-06-06 10:39:44.948,26,1433576384.568241,51.73554119193157,39.26755003634772,105.2365,0.5,61.875,32,10,-9999,1433576384.944228,-20.95380020141602,117.3375854492188,339.2268981933594,1.44898509979248,352.0148010253906,-1,112892.378413125,0.118927001953125,-0.2270660400390625,-0.9820556640625,112892.378403125,-0.3307222631265091,0.08066874731515418,-0.1390468363063451,112892.367568125,-0.2206299126821212,0.08938438426373331,0.1943073740845762,-0.2571771144866943,-0.007654325105249882,-0.1499478220939636,0.02630602195858955,-0.03693925589323044,0.004852532874792814,XArbitraryZVertical,0.1012104218603785,0.03352803974500982,-0.1051553802766412,0.9887237566967718,0.08758558332920074,-0.1930869966745377,-0.9772646427154541,0,0,0,-1
2015-06-06 10:39:44.958,27,1433576384.568241,51.73554119193157,39.26755003634772,105.2365,0.5,61.875,32,10,-9999,1433576384.944228,-20.95380020141602,117.3375854492188,339.2268981933594,1.44898509979248,352.0148010253906,-1,112892.388149125,0.113128662109375,-0.2313690185546875,-0.981719970703125,112892.389237125,-0.3294308963139297,0.07226354459875509,-0.1318110276245998,112892.378403125,-0.222056175388557,0.09032107251279189,0.1923683284026748,-0.2451252639293671,-0.009988702833652496,-0.1340181678533554,0.03054505214095116,-0.03884217515587807,-0.001542244921438396,XArbitraryZVertical,0.1003262653975648,0.03402989015776994,-0.1058666737362465,0.9887208172377336,0.08853453397750854,-0.1911840736865997,-0.9775531888008118,0,0,0,-1
2015-06-06 10:39:44.985,28,1433576384.568241,51.73554119193157,39.26755003634772,105.2365,0.5,61.875,32,10,-9999,1433576384.944228,-20.95380020141602,117.3375854492188,339.2268981933594,1.44898509979248,352.0148010253906,-1,112892.397869125,0.10565185546875,-0.238006591796875,-0.983734130859375,112892.400070125,-0.3350759988765707,0.04456746821025803,-0.1320927900679302,112892.389237125,-0.2232277645380433,0.09036373996763074,0.1896241013932994,-0.2438341826200485,-0.01839360967278481,-0.1267823725938797,0.02450540289282799,-0.04287927225232124,-0.003651704639196396,XArbitraryZVertical,0.09899313449424621,0.0341500556094677,-0.1065195672059555,0.9887809235756583,0.08862325549125671,-0.1884897500276566,-0.9780682921409607,0,0,0,-1
2015-06-06 10:39:44.986,29,1433576384.568241,51.73554119193157,39.26755003634772,105.2365,0.5,61.875,32,10,-9999,1433576384.98386,-20.88535690307617,117.8851165771484,339.7594604492188,1.79963207244873,352.3654479980469,-1,112892.407589125,0.100494384765625,-0.24169921875,-0.9898223876953125,112892.400070125,-0.3350759988765707,0.04456746821025803,-0.1320927900679302,112892.389237125,-0.2232277645380433,0.09036373996763074,0.1896241013932994,-0.2438341826200485,-0.01839360967278481,-0.1267823725938797,0.02450540289282799,-0.04287927225232124,-0.003651704639196396,XArbitraryZVertical,0.09899313449424621,0.0341500556094677,-0.1065195672059555,0.9887809235756583,0.08862325549125671,-0.1884897500276566,-0.9780682921409607,0,0,0,-1
2015-06-06 10:39:44.987,30,1433576384.568241,51.73554119193157,39.26755003634772,105.2365,0.5,61.875,32,10,-9999,1433576384.98386,-20.88535690307617,117.8851165771484,339.7594604492188,1.79963207244873,352.3654479980469,-1,112892.417323125,0.0890655517578125,-0.2427520751953125,-0.989044189453125,112892.410904125,-0.3374360922345989,0.04094796597273134,-0.1333668463334241,112892.389237125,-0.2232277645380433,0.09036373996763074,0.1896241013932994,-0.2438341826200485,-0.01839360967278481,-0.1267823725938797,0.02450540289282799,-0.04287927225232124,-0.003651704639196396,XArbitraryZVertical,0.09899313449424621,0.0341500556094677,-0.1065195672059555,0.9887809235756583,0.08862325549125671,-0.1884897500276566,-0.9780682921409607,0,0,0,-1
2015-06-06 10:39:44.997,31,1433576384.568241,51.73554119193157,39.26755003634772,105.2365,0.5,61.875,32,10,-9999,1433576384.98386,-20.88535690307617,117.8851165771484,339.7594604492188,1.79963207244873,352.3654479980469,-1,112892.427058125,0.08349609375,-0.2404022216796875,-0.989501953125,112892.421744125,-0.3198254068942319,0.07590754791831052,-0.1280016420013505,112892.410904125,-0.2255864596973578,0.09011254854429725,0.1853040353092451,-0.2518280744552612,-0.04970750212669373,-0.1283374279737473,0.01204435806721449,-0.05745384469628334,-0.01093003619462252,XArbitraryZVertical,0.09688612296096832,0.03415996943368297,-0.1078170258410237,0.988848656066579,0.08845002949237823,-0.184245377779007,-0.9788923263549805,0,0,0,-1
2015-06-06 10:39:45.007,32,1433576384.568241,51.73554119193157,39.26755003634772,105.2365,0.5,61.875,32,10,-9999,1433576384.98386,-20.88535690307617,117.8851165771484,339.7594604492188,1.79963207244873,352.3654479980469,-1,112892.436763125,0.0769805908203125,-0.2371673583984375,-0.9900970458984375,112892.432572125,-0.3016820893358491,0.08194093936788502,-0.142235172763388,112892.421744125,-0.2267009963508138,0.09005864957965039,0.1826055561663123,-0.2342175841331482,-0.01474772207438946,-0.1229722499847412,0.00062389305094257,-0.0611596517264843,-0.009655469097197056,XArbitraryZVertical,0.09556929332746449,0.03423667834335799,-0.1084447672461586,0.9889055023033447,0.08844165503978729,-0.1815924197435379,-0.9793887138366699,0,0,0,-1
2015-06-06 10:39:45.017,33,1433576384.568241,51.73554119193157,39.26755003634772,105.2365,0.5,61.875,32,10,-9999,1433576384.98386,-20.88535690307617,117.8851165771484,339.7594604492188,1.79963207244873,352.3654479980469,-1,112892.446492125,0.053802490234375,-0.2437286376953125,-0.988433837890625,112892.443405125,-0.2858908756522243,0.07956486704331633,-0.1468629477896187,112892.432572125,-0.2279409566547551,0.09020079019682897,0.1800847135716969,-0.2160743474960327,-0.008714232593774796,-0.1372057795524597,-0.005125728435814381,-0.06128930300474167,-0.009673021733760834,XArbitraryZVertical,0.0943530048869145,0.0343954158184829,-0.1091202458701404,0.9889424845665824,0.0886218249797821,-0.1791129112243652,-0.979828953742981,0,0,0,-1
2015-06-06 10:39:45.026,34,1433576384.568241,51.73554119193157,39.26755003634772,105.2365,0.5,61.875,32,10,-9999,1433576385.023245,-20.09828186035156,118.2615585327148,339.992431640625,1.91169261932373,352.4775085449219,-1,112892.456203125,0.0465850830078125,-0.2404632568359375,-1.002410888671875,112892.454270125,-0.2748438171344665,0.06876228671362791,-0.146771867680338,112892.443405125,-0.2292807070231288,0.09033196304800439,0.1777398985153671,-0.2002833187580109,-0.01109010819345713,-0.1418335735797882,-0.01180739980190992,-0.0603618286550045,-0.009864167310297489,XArbitraryZVertical,0.09322489376436614,0.03453519621985515,-0.1098408453791057,0.9889648265186601,0.0887879878282547,-0.1768055260181427,-0.9802328944206238,0,0,0,-1
2015-06-06 10:39:45.036,35,1433576384.568241,51.73554119193157,39.26755003634772,105.2365,0.5,61.875,32,10,-9999,1433576385.023245,-20.09828186035156,118.2615585327148,339.992431640625,1.91169261932373,352.4775085449219,-1,112892.465939125,0.0373077392578125,-0.236114501953125,-1.007843017578125,112892.465097125,-0.2769535733500273,0.04470222416141605,-0.1396985118250875,112892.454270125,-0.2304855831260022,0.0894705002521147,0.1771877197098295,-0.1892232447862625,-0.02190126106142998,-0.1417391747236252,-0.03414974361658096,-0.0674666091799736,-0.008027747273445129,XArbitraryZVertical,0.09292532499453289,0.03408575218792494,-0.1104917961674914,0.9889360992764531,0.08795223385095596,-0.1762620210647583,-0.9804061055183411,0,0,0,-1
2015-06-06 10:39:45.046,36,1433576384.568241,51.73554119193157,39.26755003634772,105.2365,0.5,61.875,32,10,-9999,1433576385.023245,-20.09828186035156,118.2615585327148,339.992431640625,1.91169261932373,352.4775085449219,-1,112892.475674125,0.0345458984375,-0.2307891845703125,-1.0128173828125,112892.475937125,-0.2644143456734983,0.009859821303800363,-0.1276287994487394,112892.465097125,-0.2318002016329344,0.08928750520651546,0.1749955873410471,-0.1913332045078278,-0.04596112668514252,-0.1346658319234848,-0.041221983730793,-0.06635946780443192,-0.02160622552037239,XArbitraryZVertical,0.09185462260413786,0.03406459111542979,-0.1112098472784347,0.9889563700218017,0.0878070667386055,-0.1741037964820862,-0.9808046817779541,0,0,0,-1
2015-06-06 10:39:45.065,37,1433576384.568241,51.73554119193157,39.26755003634772,105.2365,0.5,61.875,32,10,-9999,1433576385.062837,-20.37204933166504,118.3984527587891,339.593017578125,2.60694408416748,353.1727600097656,-1,112892.485379125,0.0312347412109375,-0.232513427734375,-1.013107299804688,112892.486771125,-0.2509038631474172,-0.01052694315686521,-0.1105914926910665,112892.475937125,-0.2329926511875388,0.08870947381142154,0.1729181250918194,-0.1787942349910736,-0.08080323785543442,-0.1225961446762085,-0.05272607132792473,-0.05873150005936623,-0.03160397335886955,XArbitraryZVertical,0.09081628618379906,0.03384814691852913,-0.1118820665972928,0.9889838766571902,0.08727197349071503,-0.1720576882362366,-0.981213390827179,0,0,0,-1
2015-06-06 10:39:45.066,38,1433576384.568241,51.73554119193157,39.26755003634772,105.2365,0.5,61.875,32,10,-9999,1433576385.062837,-20.37204933166504,118.3984527587891,339.593017578125,2.60694408416748,353.1727600097656,-1,112892.495113125,0.0269012451171875,-0.24224853515625,-1.012100219726562,112892.486771125,-0.2509038631474172,-0.01052694315686521,-0.1105914926910665,112892.475937125,-0.2329926511875388,0.08870947381142154,0.1729181250918194,-0.1787942349910736,-0.08080323785543442,-0.1225961446762085,-0.05272607132792473,-0.05873150005936623,-0.03160397335886955,XArbitraryZVertical,0.09081628618379906,0.03384814691852913,-0.1118820665972928,0.9889838766571902,0.08727197349071503,-0.1720576882362366,-0.981213390827179,0,0,0,-1
2015-06-06 10:39:45.075,39,1433576384.568241,51.73554119193157,39.26755003634772,105.2365,0.5,61.875,32,10,-9999,1433576385.062837,-20.37204933166504,118.3984527587891,339.593017578125,2.60694408416748,353.1727600097656,-1,112892.504848125,0.02337646484375,-0.2461090087890625,-1.008407592773438,112892.497605125,-0.2299535738000909,-0.04891481237370338,-0.07901732112319604,112892.486771125,-0.233792521759267,0.08638074828895223,0.1723634867409056,-0.1652733981609344,-0.101203016936779,-0.1055546551942825,-0.05376023799180984,-0.06100213527679443,-0.03159839659929276,XArbitraryZVertical,0.09042499780804997,0.03269353568454417,-0.1123979035749173,0.9890000827946491,0.08499497920274734,-0.1715112924575806,-0.9815089106559753,0,0,0,-1
2015-06-06 10:39:45.084,40,1433576384.568241,51.73554119193157,39.26755003634772,105.2365,0.5,61.875,32,10,-9999,1433576385.062837,-20.37204933166504,118.3984527587891,339.593017578125,2.60694408416748,353.1727600097656,-1,112892.514579125,0.0174560546875,-0.24810791015625,-1.0048828125,112892.508438125,-0.213958361976966,-0.08128739963637958,-0.04262522482726325,112892.497605125,-0.234561685463036,0.08510992240300046,0.1706683565252477,-0.1443232893943787,-0.1395906805992126,-0.07398048788309097,-0.05687093362212181,-0.07240749895572662,-0.0301958229392767,XArbitraryZVertical,0.08952835673607509,0.0321321436556412,-0.1128798540553813,0.9890451644048763,0.08377217501401901,-0.1698410362005234,-0.9819043874740601,0,0,0,-1
2015-06-06 10:39:45.094,41,1433576384.568241,51.73554119193157,39.26755003634772,105.2365,0.5,61.875,32,10,-9999,1433576385.062837,-20.37204933166504,118.3984527587891,339.593017578125,2.60694408416748,353.1727600097656,-1,112892.524284125,0.0145111083984375,-0.25286865234375,-0.9977874755859375,112892.519268125,-0.2205656646414526,-0.1330163743339697,-0.02490242040500393,112892.508438125,-0.2349507422668423,0.08341636268081641,0.1691999619990375,-0.128328263759613,-0.1719630807638168,-0.03758840635418892,-0.0587533712387085,-0.07771521806716919,-0.02611526288092136,XArbitraryZVertical,0.08871325602088125,0.03136547783283889,-0.1131856137587967,0.9891082760974844,0.0821298360824585,-0.1683937907218933,-0.9822923541069031,0,0,0,-1
2015-06-06 10:39:45.104,42,1433576384.568241,51.73554119193157,39.26755003634772,105.2365,0.5,61.875,32,10,-9999,1433576385.102072,-20.81691932678223,118.7064361572266,339.4266052246094,2.787760734558105,353.3535766601562,-1,112892.534019125,0.0100860595703125,-0.2568511962890625,-0.992889404296875,112892.530101125,-0.2424496582669607,-0.2076983355186257,-0.0281884948740527,112892.519268125,-0.2351011375751888,0.08115459397524384,0.1677583279074716,-0.1349357515573502,-0.2236918658018112,-0.0198656115680933,-0.06247145310044289,-0.0811353400349617,-0.0221662949770689,XArbitraryZVertical,0.0878750452540588,0.03032684112853333,-0.1133962898522326,0.9891913569054837,0.07992750406265259,-0.1669725626707077,-0.9827165007591248,0,0,0,-1
2015-06-06 10:39:45.113,43,1433576384.568241,51.73554119193157,39.26755003634772,105.2365,0.5,61.875,32,10,-9999,1433576385.102072,-20.81691932678223,118.7064361572266,339.4266052246094,2.787760734558105,353.3535766601562,-1,112892.543754125,-0.0029449462890625,-0.2554473876953125,-0.992034912109375,112892.540936125,-0.2581479276285418,-0.27284298420749,-0.07981813366298286,112892.530101125,-0.2348955290762953,0.07647321976315255,0.1682188633745138,-0.15680330991745,-0.2983894646167755,-0.02314646914601326,-0.0608091913163662,-0.08544202893972397,-0.01478433236479759,XArbitraryZVertical,0.08783412149000173,0.02799277825395471,-0.1134889932242783,0.9892531626861982,0.07532030344009399,-0.1674266159534454,-0.9830031394958496,0,0,0,-1
2015-06-06 10:39:45.124,44,1433576384.568241,51.73554119193157,39.26755003634772,105.2365,0.5,61.875,32,10,-9999,1433576385.102072,-20.81691932678223,118.7064361572266,339.4266052246094,2.787760734558105,353.3535766601562,-1,112892.553487125,-0.0313873291015625,-0.251983642578125,-0.986114501953125,112892.551770125,-0.2475264422529788,-0.2535638284441884,-0.08194573305784716,112892.540936125,-0.2354475410406926,0.07275002973782874,0.166321023206442,-0.1725017726421356,-0.3635339140892029,-0.07477611303329468,-0.06159678846597672,-0.09129592776298523,-0.00929750595241785,XArbitraryZVertical,0.08669181489933087,0.02624080910596811,-0.1139688124501481,0.9893467839719442,0.07168284803628922,-0.1655552685260773,-0.9835919141769409,0,0,0,-1
2015-06-06 10:39:45.146,45,1433576384.568241,51.73554119193157,39.26755003634772,105.2365,0.5,61.875,32,10,-9999,1433576385.142489,-21.53555297851562,119.0144271850586,339.2601928710938,8.509684562683105,359.0755004882812,-1,112892.563198125,-0.026824951171875,-0.256256103515625,-0.987640380859375,112892.562607125,-0.236676990288105,-0.2630936840889279,-0.05032042879704721,112892.551770125,-0.2361890846592667,0.06908293459185473,0.1644720768661994,-0.1618804633617401,-0.3442545533180237,-0.07690373063087463,-0.07104140520095825,-0.09171583503484726,-0.007883069105446339,XArbitraryZVertical,0.08557771261744489,0.02450578811437172,-0.1145349932108838,0.9894228907713041,0.06809645891189575,-0.1637315601110458,-0.9841518402099609,0,0,0,-1
2015-06-06 10:39:45.147,46,1433576384.568241,51.73554119193157,39.26755003634772,105.2365,0.5,61.875,32,10,-9999,1433576385.142489,-21.53555297851562,119.0144271850586,339.2601928710938,8.509684562683105,359.0755004882812,-1,112892.572918125,-0.04852294921875,-0.272674560546875,-0.9840850830078125,112892.573441125,-0.2466076516769014,-0.3221303728176955,-0.06786586669070724,112892.562607125,-0.2366916385100115,0.06537654969138555,0.1627720223270046,-0.1510311961174011,-0.3537842333316803,-0.04527843371033669,-0.0958537757396698,-0.08992943912744522,-0.001440692460164428,XArbitraryZVertical,0.08453046376000309,0.02275293277821729,-0.1149777065302047,0.9895034268498339,0.0644664466381073,-0.1620542109012604,-0.984673798084259,0,0,0,-1
2015-06-06 10:39:45.153,47,1433576384.568241,51.73554119193157,39.26755003634772,105.2365,0.5,61.875,32,10,-9999,1433576385.142489,-21.53555297851562,119.0144271850586,339.2601928710938,8.509684562683105,359.0755004882812,-1,112892.582642125,-0.0588531494140625,-0.28216552734375,-0.986602783203125,112892.584275125,-0.2644953057706366,-0.3258686520398397,-0.1045423885910605,112892.573441125,-0.237142864760665,0.06115236104049888,0.1610389301850668,-0.1609621345996857,-0.4128206372261047,-0.06282388418912888,-0.1088464632630348,-0.1123307794332504,0.001131109544076025,XArbitraryZVertical,0.08343510181322049,0.02074819287459445,-0.1154137433025175,0.9895896948406235,0.06032351031899452,-0.1603437811136246,-0.9852162003517151,0,0,0,-1
2015-06-06 10:39:45.163,48,1433576384.568241,51.73554119193157,39.26755003634772,105.2365,0.5,61.875,32,10,-9999,1433576385.142489,-21.53555297851562,119.0144271850586,339.2601928710938,8.509684562683105,359.0755004882812,-1,112892.592371125,-0.0630340576171875,-0.2720794677734375,-0.9878692626953125,112892.595139125,-0.2859372146551916,-0.2561769221057741,-0.1298392231535052,112892.573441125,-0.237142864760665,0.06115236104049888,0.1610389301850668,-0.1609621345996857,-0.4128206372261047,-0.06282388418912888,-0.1088464632630348,-0.1123307794332504,0.001131109544076025,XArbitraryZVertical,0.08343510181322049,0.02074819287459445,-0.1154137433025175,0.9895896948406235,0.06032351031899452,-0.1603437811136246,-0.9852162003517151,0,0,0,-1
2015-06-06 10:39:45.172,49,1433576384.568241,51.73554119193157,39.26755003634772,105.2365,0.5,61.875,32,10,-9999,1433576385.142489,-21.53555297851562,119.0144271850586,339.2601928710938,8.509684562683105,359.0755004882812,-1,112892.602092125,-0.050750732421875,-0.2888946533203125,-0.987274169921875,112892.595139125,-0.2859372146551916,-0.2561769221057741,-0.1298392231535052,112892.573441125,-0.237142864760665,0.06115236104049888,0.1610389301850668,-0.1609621345996857,-0.4128206372261047,-0.06282388418912888,-0.1088464632630348,-0.1123307794332504,0.001131109544076025,XArbitraryZVertical,0.08343510181322049,0.02074819287459445,-0.1154137433025175,0.9895896948406235,0.06032351031899452,-0.1603437811136246,-0.9852162003517151,0,0,0,-1
2015-06-06 10:39:45.182,50,1433576384.568241,51.73554119193157,39.26755003634772,105.2365,0.5,61.875,32,10,-9999,1433576385.142489,-21.53555297851562,119.0144271850586,339.2601928710938,8.509684562683105,359.0755004882812,-1,112892.611811125,-0.0462188720703125,-0.301483154296875,-0.9787750244140625,112892.605973125,-0.2865310995782793,-0.2164566733955693,-0.1271417072853639,112892.584275125,-0.2380470208991746,0.05671768756749159,0.1590914829875289,-0.178849995136261,-0.4165586829185486,-0.09950042515993118,-0.1148245632648468,-0.1237443014979362,-0.0008188742212951183,XArbitraryZVertical,0.08222427491543066,0.01863368262688059,-0.1160824096801236,0.9896549038171083,0.0559714138507843,-0.1584212332963943,-0.9857839345932007,0,0,0,-1
2015-06-06 10:39:45.192,51,1433576384.568241,51.73554119193157,39.26755003634772,105.2365,0.5,61.875,32,10,-9999,1433576385.181619,-21.8093204498291,119.4935150146484,339.8593139648438,13.23795604705811,3.80377197265625,-1,112892.621547125,-0.05419921875,-0.3297271728515625,-0.9746246337890625,112892.616806125,-0.2677909676196097,-0.1934301836624172,-0.07697680709597733,112892.595139125,-0.2392705933106511,0.05294957579240763,0.156893817909732,-0.2002920806407928,-0.34686678647995,-0.1247972697019577,-0.1153088361024857,-0.1158285290002823,-0.00153615849558264,XArbitraryZVertical,0.08092874623035216,0.01685188261634905,-0.1168817101385939,0.9896995594224277,0.05227478221058846,-0.1562509387731552,-0.9863331317901611,0,0,0,-1
2015-06-06 10:39:45.201,52,1433576384.568241,51.73554119193157,39.26755003634772,105.2365,0.5,61.875,32,10,-9999,1433576385.181619,-21.8093204498291,119.4935150146484,339.8593139648438,13.23795604705811,3.80377197265625,-1,112892.631277125,-0.035064697265625,-0.2974700927734375,-0.9803314208984375,112892.627640125,-0.231501136709536,-0.2268400721696793,0.01064598645759175,112892.616806125,-0.2414103500319658,0.04675464290591876,0.1525497478215866,-0.1821462064981461,-0.2841196358203888,-0.07193487137556076,-0.09241370856761932,-0.1495243906974792,0.008531701751053333,XArbitraryZVertical,0.07843230293608631,0.01396462291102927,-0.1182611235898757,0.9897816273352201,0.04619484022259712,-0.1519587635993958,-0.9873067140579224,0,0,0,-1
2015-06-06 10:39:45.225,53,1433576384.568241,51.73554119193157,39.26755003634772,105.2365,0.5,61.875,32,10,-9999,1433576385.222011,-22.04886436462402,120.0068206787109,339.892578125,19.22861099243164,9.794427871704102,-1,112892.641018125,-0.0236968994140625,-0.27178955078125,-0.9864654541015625,112892.638474125,-0.1837530552093963,-0.2676205253098446,0.01714463214960311,112892.627640125,-0.2413412949790962,0.04345283616516264,0.1508644061908236,-0.1458564549684525,-0.3175294399261475,0.01568791456520557,-0.09714497625827789,-0.1794344037771225,0.01308369543403387,XArbitraryZVertical,0.07740275901215442,0.01243577280310638,-0.1183820777068812,0.9898686014466259,0.04294576123356819,-0.15029276907444,-0.9877083301544189,0,0,0,-1
2015-06-06 10:39:45.226,54,1433576384.568241,51.73554119193157,39.26755003634772,105.2365,0.5,61.875,32,10,-9999,1433576385.222011,-22.04886436462402,120.0068206787109,339.892578125,19.22861099243164,9.794427871704102,-1,112892.650722125,-0.0130462646484375,-0.25006103515625,-0.995208740234375,112892.649284125,-0.09614171324851455,-0.1905241422809227,-0.05373779710783688,112892.638474125,-0.2410231397126679,0.03957443791481279,0.1496813516092296,-0.09810856729745865,-0.3583097159862518,0.02218654751777649,-0.07418642938137054,-0.1483470350503922,0.007713013794273138,XArbitraryZVertical,0.07658601333225416,0.01060024579811127,-0.1183914067839301,0.9899523686272055,0.03912172839045525,-0.1491230577230453,-0.9880444407463074,0,0,0,-1
2015-06-06 10:39:45.230,55,1433576384.568241,51.73554119193157,39.26755003634772,105.2365,0.5,61.875,32,10,-9999,1433576385.222011,-22.04886436462402,120.0068206787109,339.892578125,19.22861099243164,9.794427871704102,-1,112892.660457125,0.0175018310546875,-0.2686309814453125,-1.005355834960938,112892.660127125,-0.004828311056313659,0.1364092415627307,-0.3519806802119576,112892.649284125,-0.2411883832949637,0.0362126330102692,0.1492431328356873,-0.01049740798771381,-0.281213104724884,-0.0486958920955658,-0.05949916318058968,-0.1230998262763023,0.001770127448253334,XArbitraryZVertical,0.07617079911953158,0.008956482465340716,-0.1186076606271314,0.9899747540336068,0.03580226376652718,-0.1486897170543671,-0.9882355928421021,0,0,0,-1
2015-06-06 10:39:45.240,56,1433576384.568241,51.73554119193157,39.26755003634772,105.2365,0.5,61.875,32,10,-9999,1433576385.222011,-22.04886436462402,120.0068206787109,339.892578125,19.22861099243164,9.794427871704102,-1,112892.670193125,0.009857177734375,-0.3037109375,-0.997802734375,112892.670975125,-0.03438620336288511,0.268172332287709,-0.5988711595966255,112892.660127125,-0.2441925087315416,0.03630287395418598,0.1498561821022333,0.08081580698490143,0.04572046175599098,-0.3469387888908386,-0.04893439263105392,-0.1007651090621948,-0.007067673373967409,XArbitraryZVertical,0.07649287698571955,0.008849084445447469,-0.120082797662889,0.9897730321545338,0.03588812798261642,-0.1492959260940552,-0.9881410598754883,0,0,0,-1
2015-06-06 10:39:45.251,57,1433576384.568241,51.73554119193157,39.26755003634772,105.2365,0.5,61.875,32,10,-9999,1433576385.222011,-22.04886436462402,120.0068206787109,339.892578125,19.22861099243164,9.794427871704102,-1,112892.679908125,-0.00311279296875,-0.39813232421875,-1.006240844726562,112892.681809125,-0.1237877222085181,0.2087782473406529,-0.6843189494879268,112892.670975125,-0.2501438946493125,0.03888970701694087,0.1503285788886611,0.05125763639807701,0.1774838417768478,-0.5938292741775513,-0.02858423627912998,-0.1539479196071625,-0.009828394278883934,XArbitraryZVertical,0.07691153884541732,0.00987142169254358,-0.1229216960702256,0.9893823461440062,0.03844141587615013,-0.1497630178928375,-0.9879743456840515,0,0,0,-1
2015-06-06 10:39:45.260,58,1433576384.568241,51.73554119193157,39.26755003634772,105.2365,0.5,61.875,32,10,-9999,1433576385.222011,-22.04886436462402,120.0068206787109,339.892578125,19.22861099243164,9.794427871704102,-1,112892.689632125,-0.0549468994140625,-0.3457794189453125,-0.9798431396484375,112892.681809125,-0.1237877222085181,0.2087782473406529,-0.6843189494879268,112892.670975125,-0.2501438946493125,0.03888970701694087,0.1503285788886611,0.05125763639807701,0.1774838417768478,-0.5938292741775513,-0.02858423627912998,-0.1539479196071625,-0.009828394278883934,XArbitraryZVertical,0.07691153884541732,0.00987142169254358,-0.1229216960702256,0.9893823461440062,0.03844141587615013,-0.1497630178928375,-0.9879743456840515,0,0,0,-1
2015-06-06 10:39:45.269,59,1433576384.568241,51.73554119193157,39.26755003634772,105.2365,0.5,61.875,32,10,-9999,1433576385.261241,-22.80172348022461,120.3490219116211,340.2254028320312,23.25151824951172,13.81733417510986,-1,112892.699368125,-0.036163330078125,-0.296539306640625,-0.947540283203125,112892.692642125,-0.2390019299197441,0.1195548939719462,-0.6224294825994664,112892.670975125,-0.2501438946493125,0.03888970701694087,0.1503285788886611,0.05125763639807701,0.1774838417768478,-0.5938292741775513,-0.02858423627912998,-0.1539479196071625,-0.009828394278883934,XArbitraryZVertical,0.07691153884541732,0.00987142169254358,-0.1229216960702256,0.9893823461440062,0.03844141587615013,-0.1497630178928375,-0.9879743456840515,0,0,0,-1
2015-06-06 10:39:45.279,60,1433576384.568241,51.73554119193157,39.26755003634772,105.2365,0.5,61.875,32,10,-9999,1433576385.261241,-22.80172348022461,120.3490219116211,340.2254028320312,23.25151824951172,13.81733417510986,-1,112892.709102125,-0.0226287841796875,-0.271209716796875,-0.9247894287109375,112892.703476125,-0.3214022645756678,0.07630515786905934,-0.4905971496861459,112892.692642125,-0.2643842914587564,0.04305668805629621,0.1482349918266415,-0.1533584594726562,0.02886680327355862,-0.6173876523971558,-0.09751824289560318,-0.1980867087841034,0.008273525163531303,XArbitraryZVertical,0.07621617469863363,0.01152224681606932,-0.1298350123052575,0.9885348765331002,0.04257134348154068,-0.1476927101612091,-0.9881166815757751,0,0,0,-1
2015-06-06 10:39:45.305,61,1433576384.568241,51.73554119193157,39.26755003634772,105.2365,0.5,61.875,32,10,-9999,1433576385.300536,-22.9386100769043,120.3490219116211,340.0922546386719,22.44678115844727,13.01259803771973,-1,112892.718807125,0.0011749267578125,-0.2544403076171875,-0.9038238525390625,112892.714310125,-0.3445496618223096,0.0475845634092088,-0.3892913007678587,112892.692642125,-0.2643842914587564,0.04305668805629621,0.1482349918266415,-0.1533584594726562,0.02886680327355862,-0.6173876523971558,-0.09751824289560318,-0.1980867087841034,0.008273525163531303,XArbitraryZVertical,0.07621617469863363,0.01152224681606932,-0.1298350123052575,0.9885348765331002,0.04257134348154068,-0.1476927101612091,-0.9881166815757751,0,0,0,-1
2015-06-06 10:39:45.306,62,1433576384.568241,51.73554119193157,39.26755003634772,105.2365,0.5,61.875,32,10,-9999,1433576385.300536,-22.9386100769043,120.3490219116211,340.0922546386719,22.44678115844727,13.01259803771973,-1,112892.728551125,0.0244903564453125,-0.25128173828125,-0.91204833984375,112892.725144125,-0.3209607124669327,0.02108611056292039,-0.4267124425089981,112892.714310125,-0.2742793458818923,0.04405957427050582,0.142645723359657,-0.2589065730571747,-0.04310313239693642,-0.3842494487762451,-0.06622675061225891,-0.1290472596883774,0.06409329921007156,XArbitraryZVertical,0.07357999862586868,0.01202577355755989,-0.1347745163006396,0.9880674037374623,0.04359796643257141,-0.1421624571084976,-0.9888827204704285,0,0,0,-1
2015-06-06 10:39:45.308,63,1433576384.568241,51.73554119193157,39.26755003634772,105.2365,0.5,61.875,32,10,-9999,1433576385.300536,-22.9386100769043,120.3490219116211,340.0922546386719,22.44678115844727,13.01259803771973,-1,112892.738277125,0.04473876953125,-0.2508544921875,-0.9273529052734375,112892.736008125,-0.2614441221097328,0.01756301475685456,-0.4573627634947201,112892.725144125,-0.2785805500364935,0.04400196477717835,0.1397982457381054,-0.2353176921606064,-0.06960148364305496,-0.4216706156730652,-0.04238370060920715,-0.1150969788432121,0.08546178787946701,XArbitraryZVertical,0.07219595891546321,0.01203837232746335,-0.1369461462819739,0.9878707274367934,0.04355862736701965,-0.139343336224556,-0.9892856478691101,0,0,0,-1
2015-06-06 10:39:45.318,64,1433576384.568241,51.73554119193157,39.26755003634772,105.2365,0.5,61.875,32,10,-9999,1433576385.300536,-22.9386100769043,120.3490219116211,340.0922546386719,22.44678115844727,13.01259803771973,-1,112892.748012125,0.0361328125,-0.223968505859375,-0.936767578125,112892.746821125,-0.1928410924292917,0.1021226404246145,-0.3963047354985824,112892.736008125,-0.2833690452801239,0.04346997375907947,0.1402759192521805,-0.1757781505584717,-0.07313014566898346,-0.4523182511329651,-0.0185390766710043,-0.1114654093980789,0.0771937221288681,XArbitraryZVertical,0.07242327331153929,0.01156880606930858,-0.1393226800446284,0.9875273277404307,0.04302943497896194,-0.1398163288831711,-0.9892420768737793,0,0,0,-1
2015-06-06 10:39:45.328,65,1433576384.568241,51.73554119193157,39.26755003634772,105.2365,0.5,61.875,32,10,-9999,1433576385.300536,-22.9386100769043,120.3490219116211,340.0922546386719,22.44678115844727,13.01259803771973,-1,112892.757717125,0.0489654541015625,-0.2386474609375,-0.9268798828125,112892.757675125,-0.1434218773451273,0.1662198678567506,-0.3138553986786013,112892.746821125,-0.2877909131108383,0.04394037217870137,0.138750121091374,-0.107175312936306,0.01142967771738768,-0.3912602365016937,0.001234682858921587,-0.1125491335988045,0.06208078190684319,XArbitraryZVertical,0.07172912521946614,0.01175111010530535,-0.1415128210395397,0.9872643847966842,0.04350408539175987,-0.1383053511381149,-0.9894337058067322,0,0,0,-1
2015-06-06 10:39:45.338,66,1433576384.568241,51.73554119193157,39.26755003634772,105.2365,0.5,61.875,32,10,-9999,1433576385.300536,-22.9386100769043,120.3490219116211,340.0922546386719,22.44678115844727,13.01259803771973,-1,112892.767445125,0.092041015625,-0.2709503173828125,-0.908111572265625,112892.768509125,-0.1216792975735024,0.1375695808496782,-0.2336953151316522,112892.757675125,-0.2913808881672862,0.04512894086492231,0.1378570036617852,-0.05775627493858337,0.07552709430456161,-0.3088109195232391,-0.008552807383239269,-0.08654773980379105,0.05273670703172684,XArbitraryZVertical,0.0713946833707407,0.01227424696256831,-0.1432564774046921,0.987030761288367,0.04468562081456184,-0.1374207735061646,-0.9895042777061462,0,0,0,-1
2015-06-06 10:39:45.348,67,1433576384.568241,51.73554119193157,39.26755003634772,105.2365,0.5,61.875,32,10,-9999,1433576385.340064,-22.6306209564209,120.3832550048828,340.1921081542969,22.01115036010742,12.57696723937988,-1,112892.777166125,0.0987548828125,-0.2603607177734375,-0.908172607421875,112892.779343125,-0.1126687583413283,0.1546063549751331,-0.1594679555450727,112892.768509125,-0.2942862734621718,0.04773017827398703,0.1418902492019161,-0.03597259894013405,0.04688536748290062,-0.2286511659622192,0.04480844363570213,-0.1295357048511505,0.08071146160364151,XArbitraryZVertical,0.07358945956845701,0.01315580528040481,-0.1445290344774882,0.9866726277853523,0.04723257198929787,-0.141414612531662,-0.9888230562210083,0,0,0,-1
2015-06-06 10:39:45.357,68,1433576384.568241,51.73554119193157,39.26755003634772,105.2365,0.5,61.875,32,10,-9999,1433576385.340064,-22.6306209564209,120.3832550048828,340.1921081542969,22.01115036010742,12.57696723937988,-1,112892.786891125,0.090850830078125,-0.2288818359375,-0.9067535400390625,112892.779343125,-0.1126687583413283,0.1546063549751331,-0.1594679555450727,112892.768509125,-0.2942862734621718,0.04773017827398703,0.1418902492019161,-0.03597259894013405,0.04688536748290062,-0.2286511659622192,0.04480844363570213,-0.1295357048511505,0.08071146160364151,XArbitraryZVertical,0.07358945956845701,0.01315580528040481,-0.1445290344774882,0.9866726277853523,0.04723257198929787,-0.141414612531662,-0.9888230562210083,0,0,0,-1
2015-06-06 10:39:45.369,69,1433576384.568241,51.73554119193157,39.26755003634772,105.2365,0.5,61.875,32,10,-9999,1433576385.340064,-22.6306209564209,120.3832550048828,340.1921081542969,22.01115036010742,12.57696723937988,-1,112892.796627125,0.1240997314453125,-0.201812744140625,-0.905975341796875,112892.790177125,-0.1135119151424474,0.163307701204749,-0.03330629154085798,112892.768509125,-0.2942862734621718,0.04773017827398703,0.1418902492019161,-0.03597259894013405,0.04688536748290062,-0.2286511659622192,0.04480844363570213,-0.1295357048511505,0.08071146160364151,XArbitraryZVertical,0.07358945956845701,0.01315580528040481,-0.1445290344774882,0.9866726277853523,0.04723257198929787,-0.141414612531662,-0.9888230562210083,0,0,0,-1
2015-06-06 10:39:45.385,70,1433576384.568241,51.73554119193157,39.26755003634772,105.2365,0.5,61.875,32,10,-9999,1433576385.38039,-22.7332820892334,120.622802734375,339.9591369628906,21.09061431884766,11.65642929077148,-1,112892.806361125,0.12408447265625,-0.1989593505859375,-0.9010772705078125,112892.801010125,-0.1120519702328659,0.1828308025239019,0.08569120281493461,112892.790177125,-0.2968831008181517,0.04952260758703162,0.1411300337691622,-0.02780558541417122,0.07262387871742249,-0.02826215885579586,0.04184063151478767,-0.08821983635425568,0.08209033310413361,XArbitraryZVertical,0.07336235308484738,0.01400105778155644,-0.1457572530743112,0.9864972167761468,0.04901019856333733,-0.1406619995832443,-0.9888438582420349,0,0,0,-1
2015-06-06 10:39:45.387,71,1433576384.568241,51.73554119193157,39.26755003634772,105.2365,0.5,61.875,32,10,-9999,1433576385.38039,-22.7332820892334,120.622802734375,339.9591369628906,21.09061431884766,11.65642929077148,-1,112892.816097125,0.137542724609375,-0.186676025390625,-0.915771484375,112892.811844125,-0.1496432879676614,0.161223511335653,0.1553001084390987,112892.801010125,-0.2961694448034285,0.05033544894442733,0.1408890099158905,-0.02634583041071892,0.09214717149734497,0.09073531627655029,0.07428406924009323,-0.06138937175273895,0.08286219835281372,XArbitraryZVertical,0.07329761439922158,0.01444612977720536,-0.1453796522582573,0.9865513295146443,0.04981566220521927,-0.140423372387886,-0.9888375401496887,0,0,0,-1
2015-06-06 10:39:45.397,72,1433576384.568241,51.73554119193157,39.26755003634772,105.2365,0.5,61.875,32,10,-9999,1433576385.38039,-22.7332820892334,120.622802734375,339.9591369628906,21.09061431884766,11.65642929077148,-1,112892.825790125,0.1287994384765625,-0.1706695556640625,-0.9074859619140625,112892.822678125,-0.2389009961144301,0.077839671289163,0.1060633198896048,112892.811844125,-0.2945112974677888,0.05096521538979878,0.1404091434559915,-0.0639372393488884,0.07053999602794647,0.1603442281484604,0.07364265620708466,-0.05901110544800758,0.08779588341712952,XArbitraryZVertical,0.07309451870322757,0.01485310998996495,-0.1445471002942084,0.9866826806302553,0.05044181272387505,-0.1399482488632202,-0.9888731241226196,0,0,0,-1
2015-06-06 10:39:45.405,73,1433576384.568241,51.73554119193157,39.26755003634772,105.2365,0.5,61.875,32,10,-9999,1433576385.38039,-22.7332820892334,120.622802734375,339.9591369628906,21.09061431884766,11.65642929077148,-1,112892.835537125,0.098114013671875,-0.1684722900390625,-0.91339111328125,112892.833512125,-0.2962068964507552,0.06422692337722297,0.004449875865413399,112892.811844125,-0.2945112974677888,0.05096521538979878,0.1404091434559915,-0.0639372393488884,0.07053999602794647,0.1603442281484604,0.07364265620708466,-0.05901110544800758,0.08779588341712952,XArbitraryZVertical,0.07309451870322757,0.01485310998996495,-0.1445471002942084,0.9866826806302553,0.05044181272387505,-0.1399482488632202,-0.9888731241226196,0,0,0,-1
2015-06-06 10:39:45.415,74,1433576384.568241,51.73554119193157,39.26755003634772,105.2365,0.5,61.875,32,10,-9999,1433576385.38039,-22.7332820892334,120.622802734375,339.9591369628906,21.09061431884766,11.65642929077148,-1,112892.845272125,0.0473785400390625,-0.2039337158203125,-0.9123382568359375,112892.844341125,-0.2787810344900397,0.1207985902010132,-0.01307452305563501,112892.833512125,-0.2925315510365802,0.05051381755299889,0.1369111272768943,-0.2105012089014053,-0.02645620331168175,0.009493968449532986,0.07877959311008453,-0.0341857522726059,0.08189272880554199,XArbitraryZVertical,0.07132219571894467,0.01495997372624884,-0.1436480755285903,0.9869420317226699,0.05001984536647797,-0.1364838033914566,-0.9893786907196045,0,0,0,-1
2015-06-06 10:39:45.425,75,1433576384.568241,51.73554119193157,39.26755003634772,105.2365,0.5,61.875,32,10,-9999,1433576385.41917,-23.17815208435059,120.9307861328125,340.2586669921875,20.26622581481934,10.83204174041748,-1,112892.854977125,0.075653076171875,-0.252655029296875,-0.920379638671875,112892.855179125,-0.2466816875552056,0.1653817710617027,-0.02682335849927809,112892.844341125,-0.2924978123896704,0.0506919630385455,0.1347477985317483,-0.1930755376815796,0.03011565469205379,-0.008030441589653492,0.04790307208895683,-0.03413188830018044,0.07627121359109879,XArbitraryZVertical,0.07026770048468324,0.01520814212837773,-0.1436628244601355,0.9870117301986511,0.05021094158291817,-0.1343404054641724,-0.9896623492240906,0,0,0,-1
2015-06-06 10:39:45.435,76,1433576384.568241,51.73554119193157,39.26755003634772,105.2365,0.5,61.875,32,10,-9999,1433576385.41917,-23.17815208435059,120.9307861328125,340.2586669921875,20.26622581481934,10.83204174041748,-1,112892.864710125,0.0648651123046875,-0.2866363525390625,-0.9369049072265625,112892.866013125,-0.2385337462001082,0.193052281103735,-0.04105529136466154,112892.855179125,-0.2925706967750229,0.05138711891906084,0.1329069941371672,-0.1609764844179153,0.07469913363456726,-0.02177929319441319,0.02474156022071838,-0.1201389729976654,0.06949283182621002,XArbitraryZVertical,0.06941019334341982,0.0156840235657579,-0.143706669357853,0.987058574577462,0.05091151595115662,-0.1325160562992096,-0.9898724555969238,0,0,0,-1
2015-06-06 10:39:45.444,77,1433576384.568241,51.73554119193157,39.26755003634772,105.2365,0.5,61.875,32,10,-9999,1433576385.41917,-23.17815208435059,120.9307861328125,340.2586669921875,20.26622581481934,10.83204174041748,-1,112892.874446125,0.052581787109375,-0.2784423828125,-0.970947265625,112892.866013125,-0.2385337462001082,0.193052281103735,-0.04105529136466154,112892.855179125,-0.2925706967750229,0.05138711891906084,0.1329069941371672,-0.1609764844179153,0.07469913363456726,-0.02177929319441319,0.02474156022071838,-0.1201389729976654,0.06949283182621002,XArbitraryZVertical,0.06941019334341982,0.0156840235657579,-0.143706669357853,0.987058574577462,0.05091151595115662,-0.1325160562992096,-0.9898724555969238,0,0,0,-1
2015-06-06 10:39:45.463,78,1433576384.568241,51.73554119193157,39.26755003634772,105.2365,0.5,61.875,32,10,-9999,1433576385.457088,-22.7332820892334,121.3072280883789,340.2254028320312,18.34942436218262,8.915240287780762,-1,112892.884182125,0.0336151123046875,-0.2608642578125,-0.9814910888671875,112892.876877125,-0.2527880496186483,0.1725680449471725,-0.03535346347080189,112892.866013125,-0.2928569263797454,0.05248190549246855,0.1312149164203003,-0.152828723192215,0.1023698374629021,-0.0360112376511097,0.01285824086517096,-0.1557976454496384,0.05313373729586601,XArbitraryZVertical,0.06865650849979861,0.01633896492565472,-0.1438399682355088,0.987081245695502,0.05200687050819397,-0.1308387070894241,-0.9900386333465576,0,0,0,-1
2015-06-06 10:39:45.464,79,1433576384.568241,51.73554119193157,39.26755003634772,105.2365,0.5,61.875,32,10,-9999,1433576385.457088,-22.7332820892334,121.3072280883789,340.2254028320312,18.34942436218262,8.915240287780762,-1,112892.893886125,0.0348358154296875,-0.2550048828125,-0.985687255859375,112892.887699125,-0.2754006841184021,0.1364614395200962,-0.009274458496200948,112892.876877125,-0.2931255043581921,0.05347593321044547,0.1294393930390607,-0.1670831888914108,0.08188579231500626,-0.03030942007899284,-0.0004215179942548275,-0.1493641436100006,0.01926960796117783,XArbitraryZVertical,0.06785440894158047,0.01695118138729479,-0.1439702480958756,0.98710739248573,0.05300330370664597,-0.1290782392024994,-0.990216851234436,0,0,0,-1
2015-06-06 10:39:45.474,80,1433576384.568241,51.73554119193157,39.26755003634772,105.2365,0.5,61.875,32,10,-9999,1433576385.457088,-22.7332820892334,121.3072280883789,340.2254028320312,18.34942436218262,8.915240287780762,-1,112892.903621125,0.0425262451171875,-0.254364013671875,-0.990234375,112892.898545125,-0.2788614619549601,0.108862302195278,0.03170679699015638,112892.887699125,-0.2931545689646561,0.05408006639788128,0.1274439763401023,-0.1896960139274597,0.04577938839793205,-0.004230426624417305,-0.02000022120773792,-0.1337649971246719,0.008948799222707748,XArbitraryZVertical,0.06691378303902992,0.01739544337482114,-0.1440000686424771,0.9871595232889981,0.05361533537507057,-0.1270992606878281,-0.9904398918151855,0,0,0,-1
2015-06-06 10:39:45.483,81,1433576384.568241,51.73554119193157,39.26755003634772,105.2365,0.5,61.875,32,10,-9999,1433576385.457088,-22.7332820892334,121.3072280883789,340.2254028320312,18.34942436218262,8.915240287780762,-1,112892.913357125,0.047088623046875,-0.251953125,-0.9908294677734375,112892.909378125,-0.2488244669682834,0.1030393004718198,0.08426401478676114,112892.898545125,-0.2927636277392339,0.0542861966480769,0.1253424946221298,-0.1931569874286652,0.01818045228719711,0.03675081580877304,-0.0189980510622263,-0.1299903392791748,0.005006075836718082,XArbitraryZVertical,0.06588841907908621,0.01766494730821623,-0.1438380394303529,0.9872473268035169,0.05383386462926865,-0.1250145435333252,-0.9906933307647705,0,0,0,-1
2015-06-06 10:39:45.493,82,1433576384.568241,51.73554119193157,39.26755003634772,105.2365,0.5,61.875,32,10,-9999,1433576385.457088,-22.7332820892334,121.3072280883789,340.2254028320312,18.34942436218262,8.915240287780762,-1,112892.923061125,0.048583984375,-0.2493743896484375,-0.99530029296875,112892.920212125,-0.2009658642829054,0.117734090734659,0.1420873673228886,112892.909378125,-0.2918284311461668,0.05429704767735958,0.12353172772654,-0.1631200909614563,0.01235754881054163,0.08930803090333939,-0.01133056823164225,-0.1311462372541428,0.0006827868055552244,XArbitraryZVertical,0.06498745229312301,0.0178339601774176,-0.143408481857141,0.9873664913497271,0.05385681241750717,-0.1232177838683128,-0.9909171462059021,0,0,0,-1
2015-06-06 10:39:45.503,83,1433576384.568241,51.73554119193157,39.26755003634772,105.2365,0.5,61.875,32,10,-9999,1433576385.496684,-21.91198348999023,121.7178726196289,340.0922546386719,16.8830451965332,7.448860645294189,-1,112892.932796125,0.0457763671875,-0.2498779296875,-1.000595092773438,112892.931057125,-0.1526238978596781,0.1769902239372491,0.2135724699350135,112892.920212125,-0.2903236292174005,0.05433340917409999,0.1222393835442453,-0.1152616739273071,0.02705253288149834,0.1471313685178757,-0.006812823936343193,-0.1300179362297058,0.0002439123345538974,XArbitraryZVertical,0.06433883128761496,0.01799513083506851,-0.1426874367161314,0.9875104989103426,0.05390144884586334,-0.1219351813197136,-0.9910733699798584,0,0,0,-1
2015-06-06 10:39:45.513,84,1433576384.568241,51.73554119193157,39.26755003634772,105.2365,0.5,61.875,32,10,-9999,1433576385.496684,-21.91198348999023,121.7178726196289,340.0922546386719,16.8830451965332,7.448860645294189,-1,112892.942531125,0.0351715087890625,-0.2544097900390625,-1.00732421875,112892.941867125,-0.141529701390626,0.2264741538359024,0.2638087428416142,112892.931057125,-0.2881023106650132,0.05482840349831126,0.1215190437825674,-0.06691988557577133,0.08630886673927307,0.2186164706945419,-0.005812831223011017,-0.1281542032957077,-0.004166269674897194,XArbitraryZVertical,0.06399828863275209,0.01836320610436978,-0.141587537989795,0.9876841503231875,0.05439681559801102,-0.1212201863527298,-0.9911340475082397,0,0,0,-1
2015-06-06 10:39:45.522,85,1433576384.568241,51.73554119193157,39.26755003634772,105.2365,0.5,61.875,32,10,-9999,1433576385.496684,-21.91198348999023,121.7178726196289,340.0922546386719,16.8830451965332,7.448860645294189,-1,112892.952266125,0.02630615234375,-0.2714996337890625,-1.012374877929688,112892.952713125,-0.1891121342709627,0.2384695640178373,0.3019758360040848,112892.941867125,-0.2852133928372901,0.05551377909437247,0.1253069551560709,-0.05578994005918503,0.1357866078615189,0.2688566446304321,-0.009273862466216087,-0.1248986423015594,-0.009964157827198505,XArbitraryZVertical,0.06588970471889959,0.01852239681160799,-0.1400702671086609,0.9877731459705303,0.05505022779107094,-0.1249792873859406,-0.9906309247016907,0,0,0,-1
2015-06-06 10:39:45.545,86,1433576384.568241,51.73554119193157,39.26755003634772,105.2365,0.5,61.875,32,10,-9999,1433576385.536185,-21.84354209899902,121.8547592163086,339.4931640625,16.37575340270996,6.941569805145264,-1,112892.961976125,0.0222015380859375,-0.282562255859375,-1.016021728515625,112892.963547125,-0.2832873693705628,0.2178010371138413,0.3185902327806532,112892.952713125,-0.2819080506866088,0.05669038119104831,0.1245275812363772,-0.1033726558089256,0.1477823108434677,0.3070237338542938,-0.02991511858999729,-0.1472936421632767,-0.02171245217323303,XArbitraryZVertical,0.06555561655230512,0.01926780565481919,-0.1384131727788628,0.9880146792457007,0.05622127279639244,-0.1242059841752052,-0.9906623959541321,0,0,0,-1
2015-06-06 10:39:45.547,87,1433576384.568241,51.73554119193157,39.26755003634772,105.2365,0.5,61.875,32,10,-9999,1433576385.536185,-21.84354209899902,121.8547592163086,339.4931640625,16.37575340270996,6.941569805145264,-1,112892.971706125,0.0158843994140625,-0.283416748046875,-1.023757934570312,112892.963547125,-0.2832873693705628,0.2178010371138413,0.3185902327806532,112892.952713125,-0.2819080506866088,0.05669038119104831,0.1245275812363772,-0.1033726558089256,0.1477823108434677,0.3070237338542938,-0.02991511858999729,-0.1472936421632767,-0.02171245217323303,XArbitraryZVertical,0.06555561655230512,0.01926780565481919,-0.1384131727788628,0.9880146792457007,0.05622127279639244,-0.1242059841752052,-0.9906623959541321,0,0,0,-1
2015-06-06 10:39:45.551,88,1433576384.568241,51.73554119193157,39.26755003634772,105.2365,0.5,61.875,32,10,-9999,1433576385.536185,-21.84354209899902,121.8547592163086,339.4931640625,16.37575340270996,6.941569805145264,-1,112892.981441125,0.0175933837890625,-0.27178955078125,-1.03411865234375,112892.974398125,-0.392694554324871,0.1753590377695755,0.303291171266475,112892.952713125,-0.2819080506866088,0.05669038119104831,0.1245275812363772,-0.1033726558089256,0.1477823108434677,0.3070237338542938,-0.02991511858999729,-0.1472936421632767,-0.02171245217323303,XArbitraryZVertical,0.06555561655230512,0.01926780565481919,-0.1384131727788628,0.9880146792457007,0.05622127279639244,-0.1242059841752052,-0.9906623959541321,0,0,0,-1
2015-06-06 10:39:45.561,89,1433576384.568241,51.73554119193157,39.26755003634772,105.2365,0.5,61.875,32,10,-9999,1433576385.536185,-21.84354209899902,121.8547592163086,339.4931640625,16.37575340270996,6.941569805145264,-1,112892.991145125,0.02362060546875,-0.2390899658203125,-1.048843383789062,112892.985214125,-0.5069369745543271,0.1448698380298034,0.256475196147863,112892.974398125,-0.2745542743414986,0.05710160550678774,0.1243089762753462,-0.3069199919700623,0.08465908467769623,0.3083450794219971,-0.04074579849839211,-0.159427672624588,-0.03309162706136703,XArbitraryZVertical,0.06540404474558653,0.01972708101129009,-0.134769973055023,0.9885191993929306,0.05663019791245461,-0.1239890679717064,-0.9906663298606873,0,0,0,-1
2015-06-06 10:39:45.571,90,1433576385.566748,51.73549890523007,39.26764701496742,105.1006,1.92,356.484375,32,10,-9999,1433576385.536185,-21.84354209899902,121.8547592163086,339.4931640625,16.37575340270996,6.941569805145264,-1,112893.000880125,0.0130767822265625,-0.192230224609375,-1.052032470703125,112892.996048125,-0.5876177060943867,0.1289518578782907,0.2284608720091015,112892.985214125,-0.2713273937826197,0.05734791182412879,0.1202218233796688,-0.4211626052856445,0.05417007952928543,0.2615290880203247,-0.03930939361453056,-0.1518571227788925,-0.04296867176890373,XArbitraryZVertical,0.06336882956413514,0.02023365289891361,-0.1332416514225401,0.9888486502272391,0.05690277740359306,-0.1199324354529381,-0.9911499619483948,0,0,0,-1
2015-06-06 10:39:45.581,91,1433576385.566748,51.73549890523007,39.26764701496742,105.1006,1.92,356.484375,32,10,-9999,1433576385.575916,-21.94620704650879,122.3680801391602,339.1270446777344,15.83790588378906,6.403721809387207,-1,112893.010601125,0.0172271728515625,-0.1585845947265625,-1.065109252929688,112893.006882125,-0.6215090941267351,0.1336550003633707,0.2182790745295106,112892.985214125,-0.2713273937826197,0.05734791182412879,0.1202218233796688,-0.4211626052856445,0.05417007952928543,0.2615290880203247,-0.03930939361453056,-0.1518571227788925,-0.04296867176890373,XArbitraryZVertical,0.06336882956413514,0.02023365289891361,-0.1332416514225401,0.9888486502272391,0.05690277740359306,-0.1199324354529381,-0.9911499619483948,0,0,0,-1
2015-06-06 10:39:45.590,92,1433576385.566748,51.73549890523007,39.26764701496742,105.1006,1.92,356.484375,32,10,-9999,1433576385.575916,-21.94620704650879,122.3680801391602,339.1270446777344,15.83790588378906,6.403721809387207,-1,112893.020320125,0.0351104736328125,-0.1410064697265625,-1.090087890625,112893.017746125,-0.6284064150339312,0.1949979865961469,0.2101204805300528,112893.006882125,-0.265653643044497,0.05757056351927543,0.1095400942474125,-0.535735011100769,0.04295553639531136,0.2233329564332962,-0.04411712661385536,-0.08290906250476837,-0.05967278778553009,XArbitraryZVertical,0.05804397060855816,0.02123807957121997,-0.130621531177572,0.9895038438757812,0.05719390884041786,-0.1093211621046066,-0.9923596978187561,0,0,0,-1
2015-06-06 10:39:45.600,93,1433576385.566748,51.73549890523007,39.26764701496742,105.1006,1.92,356.484375,32,10,-9999,1433576385.575916,-21.94620704650879,122.3680801391602,339.1270446777344,15.83790588378906,6.403721809387207,-1,112893.030055125,0.0454559326171875,-0.1328582763671875,-1.1090087890625,112893.028571125,-0.62702157126709,0.2719926368714277,0.1949226191372976,112893.017746125,-0.262895618180681,0.05774571356007781,0.1042368341945888,-0.5426291227340698,0.104294516146183,0.2151759564876556,-0.04017319902777672,-0.05453642085194588,-0.07219476997852325,XArbitraryZVertical,0.05540257659953322,0.02175573514556886,-0.1293461267768033,0.9898115083096619,0.05740037187933922,-0.1040481775999069,-0.9929144978523254,0,0,0,-1
2015-06-06 10:39:45.625,94,1433576385.566748,51.73549890523007,39.26764701496742,105.1006,1.92,356.484375,32,10,-9999,1433576385.615718,-22.04886817932129,122.8129425048828,339.2268981933594,15.65040397644043,6.216220378875732,-1,112893.039790125,0.0415496826171875,-0.1312103271484375,-1.116851806640625,112893.039414125,-0.6217674207524727,0.3297571335474644,0.1869230158549176,112893.028571125,-0.2603191330353296,0.05924081266674482,0.09851453690028285,-0.5412444472312927,0.1812893599271774,0.1999780684709549,-0.02380862459540367,-0.04265120625495911,-0.09668224304914474,XArbitraryZVertical,0.05263872575824302,0.02294211236611976,-0.1281321896756015,0.990093412764505,0.05891909822821617,-0.09835526347160339,-0.9934056401252747,0,0,0,-1
2015-06-06 10:39:45.626,95,1433576385.566748,51.73549890523007,39.26764701496742,105.1006,1.92,356.484375,32,10,-9999,1433576385.615718,-22.04886817932129,122.8129425048828,339.2268981933594,15.65040397644043,6.216220378875732,-1,112893.049495125,0.037261962890625,-0.1301116943359375,-1.128692626953125,112893.050247125,-0.6350653830235654,0.3285211604855586,0.1879251633731144,112893.039414125,-0.2578683135971271,0.06146665639712787,0.09282542344681215,-0.5359904766082764,0.2390540540218353,0.1919784545898438,-0.01570756733417511,-0.04016610234975815,-0.1151943281292915,XArbitraryZVertical,0.04993594117191837,0.02447795428374205,-0.1269642583333165,0.9903470647400479,0.06116349995136261,-0.09269217401742935,-0.9938144683837891,0,0,0,-1
2015-06-06 10:39:45.630,96,1433576385.566748,51.73549890523007,39.26764701496742,105.1006,1.92,356.484375,32,10,-9999,1433576385.615718,-22.04886817932129,122.8129425048828,339.2268981933594,15.65040397644043,6.216220378875732,-1,112893.059230125,0.046417236328125,-0.127593994140625,-1.143142700195312,112893.061081125,-0.6678409065591706,0.2502212949600299,0.1941492371567386,112893.050247125,-0.2554194020321188,0.06386945563965626,0.08706124871320778,-0.549185574054718,0.2378214597702026,0.1930451244115829,-0.02632234059274197,-0.04316038638353348,-0.1345113068819046,XArbitraryZVertical,0.04720323131109322,0.02609966666799801,-0.1257991546662465,0.9905883277319941,0.06358430534601212,-0.08695130795240402,-0.9941813349723816,0,0,0,-1
2015-06-06 10:39:45.639,97,1433576385.566748,51.73549890523007,39.26764701496742,105.1006,1.92,356.484375,32,10,-9999,1433576385.615718,-22.04886817932129,122.8129425048828,339.2268981933594,15.65040397644043,6.216220378875732,-1,112893.068966125,0.06768798828125,-0.1221771240234375,-1.158920288085938,112893.061081125,-0.6678409065591706,0.2502212949600299,0.1941492371567386,112893.050247125,-0.2554194020321188,0.06386945563965626,0.08706124871320778,-0.549185574054718,0.2378214597702026,0.1930451244115829,-0.02632234059274197,-0.04316038638353348,-0.1345113068819046,XArbitraryZVertical,0.04720323131109322,0.02609966666799801,-0.1257991546662465,0.9905883277319941,0.06358430534601212,-0.08695130795240402,-0.9941813349723816,0,0,0,-1
2015-06-06 10:39:45.649,98,1433576385.566748,51.73549890523007,39.26764701496742,105.1006,1.92,356.484375,32,10,-9999,1433576385.615718,-22.04886817932129,122.8129425048828,339.2268981933594,15.65040397644043,6.216220378875732,-1,112893.078701125,0.08856201171875,-0.1198272705078125,-1.17584228515625,112893.071915125,-0.6939587936856867,0.1298181841808935,0.20138877426401,112893.050247125,-0.2554194020321188,0.06386945563965626,0.08706124871320778,-0.549185574054718,0.2378214597702026,0.1930451244115829,-0.02632234059274197,-0.04316038638353348,-0.1345113068819046,XArbitraryZVertical,0.04720323131109322,0.02609966666799801,-0.1257991546662465,0.9905883277319941,0.06358430534601212,-0.08695130795240402,-0.9941813349723816,0,0,0,-1
2015-06-06 10:39:45.658,99,1433576385.566748,51.73549890523007,39.26764701496742,105.1006,1.92,356.484375,32,10,-9999,1433576385.655109,-21.46711349487305,124.1475601196289,339.4598999023438,13.69207382202148,4.257889747619629,-1,112893.088405125,0.1049346923828125,-0.1132965087890625,-1.191085815429688,112893.082749125,-0.6931649053647341,-0.007382016225590641,0.2004292373232545,112893.071915125,-0.250221220235917,0.06619571144102407,0.07463356403064279,-0.6080793142318726,0.03911887109279633,0.2065087258815765,0.001724750269204378,-0.04761282727122307,-0.1638881266117096,XArbitraryZVertical,0.0411227131729637,0.02815738026303054,-0.1234043674390161,0.9911041552203249,0.06596323847770691,-0.07456429302692413,-0.9950321912765503,0,0,0,-1
2015-06-06 10:39:45.668,100,1433576385.566748,51.73549890523007,39.26764701496742,105.1006,1.92,356.484375,32,10,-9999,1433576385.655109,-21.46711349487305,124.1475601196289,339.4598999023438,13.69207382202148,4.257889747619629,-1,112893.098140125,0.113922119140625,-0.097564697265625,-1.20428466796875,112893.093569125,-0.6513162583113379,-0.1384588103376556,0.1989232197268146,112893.082749125,-0.2475546889054737,0.06531426097345756,0.06818239700160404,-0.6072856187820435,-0.09808113425970078,0.2055491656064987,0.02344582974910736,-0.05169769003987312,-0.1802930682897568,XArbitraryZVertical,0.03783463181613241,0.02817680330695114,-0.1222196035579508,0.9913813478661361,0.06511618196964264,-0.06812958419322968,-0.995549201965332,0,0,0,-1
2015-06-06 10:39:45.678,101,1433576385.566748,51.73549890523007,39.26764701496742,105.1006,1.92,356.484375,32,10,-9999,1433576385.655109,-21.46711349487305,124.1475601196289,339.4598999023438,13.69207382202148,4.257889747619629,-1,112893.107878125,0.1178436279296875,-0.0740509033203125,-1.208953857421875,112893.104416125,-0.5692778472475559,-0.2032433996471412,0.1948584369550267,112893.093569125,-0.2449333174851202,0.06297319757707052,0.06206176119490506,-0.5654371380805969,-0.2291577309370041,0.2040431350469589,0.04212426394224167,-0.05127457901835442,-0.1949893683195114,XArbitraryZVertical,0.03462220366716975,0.0274422997558626,-0.1210720056647397,0.9916601195175975,0.06281042844057083,-0.06202192977070808,-0.9960964322090149,0,0,0,-1
2015-06-06 10:39:45.688,102,1433576385.566748,51.73549890523007,39.26764701496742,105.1006,1.92,356.484375,32,10,-9999,1433576385.655109,-21.46711349487305,124.1475601196289,339.4598999023438,13.69207382202148,4.257889747619629,-1,112893.117581125,0.1194305419921875,-0.04766845703125,-1.209274291992188,112893.115250125,-0.434672897323354,-0.2221550391800119,0.1919159102665982,112893.104416125,-0.242418586987905,0.05975562632430994,0.0567101575196024,-0.483398824930191,-0.2939422428607941,0.1999783515930176,0.05429805442690849,-0.04088493064045906,-0.2076742202043533,XArbitraryZVertical,0.03174132752496954,0.02621577090757254,-0.1199694352334645,0.9919236644482468,0.05962406471371651,-0.05667976662516594,-0.9966104626655579,0,0,0,-1
2015-06-06 10:39:45.706,103,1433576385.566748,51.73549890523007,39.26764701496742,105.1006,1.92,356.484375,32,10,-9999,1433576385.695084,-21.74087905883789,125.6532745361328,339.6596069335938,14.18465423583984,4.750470161437988,-1,112893.127315125,0.116241455078125,-0.02252197265625,-1.204986572265625,112893.126095125,-0.2465184357803838,-0.1867262082503607,0.2083598647334014,112893.115250125,-0.2400603936477861,0.05626840474855835,0.05267320545673861,-0.3487940728664398,-0.3128536641597748,0.1970358192920685,0.06168290972709656,-0.02140205167233944,-0.2119212299585342,XArbitraryZVertical,0.02950098094703131,0.02476641756312565,-0.1189178452519547,0.9921566724892215,0.05616071820259094,-0.05264885351061821,-0.997032642364502,0,0,0,-1
2015-06-06 10:39:45.707,104,1433576385.566748,51.73549890523007,39.26764701496742,105.1006,1.92,356.484375,32,10,-9999,1433576385.695084,-21.74087905883789,125.6532745361328,339.6596069335938,14.18465423583984,4.750470161437988,-1,112893.137051125,0.1194305419921875,0.000518798828125,-1.196762084960938,112893.136913125,-0.03155473049191286,-0.08860283683471824,0.2438438230976172,112893.126095125,-0.2376776652651457,0.05301426195020437,0.05052370191679569,-0.1606398075819016,-0.2774246335029602,0.21347975730896,0.06650872528553009,0.002833752892911434,-0.2119534760713577,XArbitraryZVertical,0.02821349636655988,0.02331503946398219,-0.1178150982953157,0.9923608266005024,0.05292181670665741,-0.05050221085548401,-0.997320830821991,0,0,0,-1
2015-06-06 10:39:45.717,105,1433576385.566748,51.73549890523007,39.26764701496742,105.1006,1.92,356.484375,32,10,-9999,1433576385.695084,-21.74087905883789,125.6532745361328,339.6596069335938,14.18465423583984,4.750470161437988,-1,112893.146785125,0.1239471435546875,0.01116943359375,-1.17376708984375,112893.147751125,0.214261163392908,0.05052469325265628,0.2812987869846006,112893.126095125,-0.2376776652651457,0.05301426195020437,0.05052370191679569,-0.1606398075819016,-0.2774246335029602,0.21347975730896,0.06650872528553009,0.002833752892911434,-0.2119534760713577,XArbitraryZVertical,0.02821349636655988,0.02331503946398219,-0.1178150982953157,0.9923608266005024,0.05292181670665741,-0.05050221085548401,-0.997320830821991,0,0,0,-1
2015-06-06 10:39:45.728,106,1433576385.566748,51.73549890523007,39.26764701496742,105.1006,1.92,356.484375,32,10,-9999,1433576385.695084,-21.74087905883789,125.6532745361328,339.6596069335938,14.18465423583984,4.750470161437988,-1,112893.156488125,0.1247100830078125,0.013397216796875,-1.13970947265625,112893.158615125,0.4165626029624881,0.1919148450021621,0.304770823568123,112893.147751125,-0.2321942197486289,0.04968664936591069,0.05341841434089878,0.300139307975769,-0.0401732474565506,0.2864186465740204,0.07435178011655807,0.06456244736909866,-0.1764258742332458,XArbitraryZVertical,0.02939451012509971,0.02157217009511259,-0.1151005023991292,0.9926844808897544,0.04959536343812943,-0.05339301377534866,-0.9973412156105042,0,0,0,-1
2015-06-06 10:39:45.736,107,1433576385.566748,51.73549890523007,39.26764701496742,105.1006,1.92,356.484375,32,10,-9999,1433576385.734326,-21.84354209899902,126.5772476196289,339.5597534179688,15.64569187164307,6.211507797241211,-1,112893.166225125,0.124755859375,0.017059326171875,-1.099578857421875,112893.158615125,0.4165626029624881,0.1919148450021621,0.304770823568123,112893.147751125,-0.2321942197486289,0.04968664936591069,0.05341841434089878,0.300139307975769,-0.0401732474565506,0.2864186465740204,0.07435178011655807,0.06456244736909866,-0.1764258742332458,XArbitraryZVertical,0.02939451012509971,0.02157217009511259,-0.1151005023991292,0.9926844808897544,0.04959536343812943,-0.05339301377534866,-0.9973412156105042,0,0,0,-1
2015-06-06 10:39:45.746,108,1433576385.566748,51.73549890523007,39.26764701496742,105.1006,1.92,356.484375,32,10,-9999,1433576385.734326,-21.84354209899902,126.5772476196289,339.5597534179688,15.64569187164307,6.211507797241211,-1,112893.175960125,0.1229400634765625,0.0107879638671875,-1.047576904296875,112893.169449125,0.5440696959494109,0.3186624044461943,0.3257919530004454,112893.147751125,-0.2321942197486289,0.04968664936591069,0.05341841434089878,0.300139307975769,-0.0401732474565506,0.2864186465740204,0.07435178011655807,0.06456244736909866,-0.1764258742332458,XArbitraryZVertical,0.02939451012509971,0.02157217009511259,-0.1151005023991292,0.9926844808897544,0.04959536343812943,-0.05339301377534866,-0.9973412156105042,0,0,0,-1
2015-06-06 10:39:45.756,109,1433576385.566748,51.73549890523007,39.26764701496742,105.1006,1.92,356.484375,32,10,-9999,1433576385.734326,-21.84354209899902,126.5772476196289,339.5597534179688,15.64569187164307,6.211507797241211,-1,112893.185664125,0.1182403564453125,-0.0042572021484375,-0.9830169677734375,112893.180283125,0.5910952618458121,0.4054809233505595,0.3453094616813092,112893.169449125,-0.2259380910023153,0.0521723608507403,0.06523062403195397,0.6299474835395813,0.2279648631811142,0.3309118151664734,0.0727180689573288,0.08224370330572128,-0.1030633971095085,XArbitraryZVertical,0.03532941520721024,0.02222839212585141,-0.1117854879139029,0.9928553447992647,0.05203778669238091,-0.06518437713384628,-0.9965154528617859,0,0,0,-1
2015-06-06 10:39:45.765,110,1433576385.566748,51.73549890523007,39.26764701496742,105.1006,1.92,356.484375,32,10,-9999,1433576385.734326,-21.84354209899902,126.5772476196289,339.5597534179688,15.64569187164307,6.211507797241211,-1,112893.195400125,0.1189727783203125,-0.0264739990234375,-0.9263153076171875,112893.191117125,0.5508343914343212,0.4330289279824481,0.33276757084369,112893.180283125,-0.2225634905737384,0.05514844814267498,0.07270160769880965,0.6769728660583496,0.3147835731506348,0.3504292964935303,0.06796517223119736,0.08342554420232773,-0.05173477530479431,XArbitraryZVertical,0.03916404084337633,0.02334767830367912,-0.1099408580554553,0.9928917723260058,0.05497489124536514,-0.07263758033514023,-0.9958420991897583,0,0,0,-1
2015-06-06 10:39:45.785,111,1433576385.566748,51.73549890523007,39.26764701496742,105.1006,1.92,356.484375,32,10,-9999,1433576385.774098,-21.84354209899902,126.2350463867188,339.5597534179688,15.58033084869385,6.146146774291992,-1,112893.205115125,0.1220550537109375,-0.0466156005859375,-0.8820953369140625,112893.201950125,0.4344577139072756,0.379685811348161,0.2942457446240208,112893.191117125,-0.219224625873025,0.05855827634893784,0.0799528185020935,0.6367118358612061,0.3423316776752472,0.3378874063491821,0.05990250036120415,0.0756104588508606,0.01207993738353252,XArbitraryZVertical,0.0429087994621718,0.02470591618801455,-0.1080957261697504,0.992906726041203,0.05833785608410835,-0.0798676609992981,-0.9950969219207764,0,0,0,-1
2015-06-06 10:39:45.786,112,1433576385.566748,51.73549890523007,39.26764701496742,105.1006,1.92,356.484375,32,10,-9999,1433576385.774098,-21.84354209899902,126.2350463867188,339.5597534179688,15.58033084869385,6.146146774291992,-1,112893.214870125,0.12213134765625,-0.0556640625,-0.8567657470703125,112893.212782125,0.284336122207836,0.3262026124405357,0.2321711880397999,112893.201950125,-0.216218815719332,0.06165669475165482,0.08615881650568727,0.5203350186347961,0.2889887690544128,0.2993655800819397,0.05758370459079742,0.05957825854420662,0.06808219105005264,XArbitraryZVertical,0.046117049165527,0.02597050577479375,-0.1064279169465473,0.9929107961445907,0.06138907372951508,-0.08605226129293442,-0.9943975210189819,0,0,0,-1
2015-06-06 10:39:45.795,113,1433576385.566748,51.73549890523007,39.26764701496742,105.1006,1.92,356.484375,32,10,-9999,1433576385.774098,-21.84354209899902,126.2350463867188,339.5597534179688,15.58033084869385,6.146146774291992,-1,112893.224577125,0.1131439208984375,-0.0697784423828125,-0.8476715087890625,112893.223620125,0.1409430070024816,0.2234085891051122,0.1771252462045161,112893.212782125,-0.2137615442941379,0.06413632284277805,0.09071709500801443,0.3702132403850555,0.2355057448148727,0.2372909933328629,0.05822623893618584,0.04397711902856827,0.111745111644268,XArbitraryZVertical,0.04847791843334127,0.02701233096237688,-0.1050673641592412,0.9929154417114174,0.06382881850004196,-0.09059271961450577,-0.9938404560089111,0,0,0,-1
2015-06-06 10:39:45.804,114,1433576385.566748,51.73549890523007,39.26764701496742,105.1006,1.92,356.484375,32,10,-9999,1433576385.774098,-21.84354209899902,126.2350463867188,339.5597534179688,15.58033084869385,6.146146774291992,-1,112893.234309125,0.136566162109375,-0.0596771240234375,-0.844207763671875,112893.234452125,-0.0008311725762137302,0.102509597731003,0.09651056105949052,112893.223620125,-0.2118024956263615,0.06570178277918451,0.09370890128737221,0.2268199473619461,0.1327119320631027,0.1822450459003448,0.0567648820579052,0.03790774941444397,0.1366986632347107,XArbitraryZVertical,0.05001779975178219,0.02767693913861499,-0.1040006831301794,0.9929330615184312,0.0653664693236351,-0.09357181191444397,-0.9934644103050232,0,0,0,-1
2015-06-06 10:39:45.815,115,1433576385.566748,51.73549890523007,39.26764701496742,105.1006,1.92,356.484375,32,10,-9999,1433576385.813576,-21.36445045471191,125.6190643310547,339.7594604492188,13.33656311035156,3.902379512786865,-1,112893.244022125,0.1243896484375,-0.088409423828125,-0.8518524169921875,112893.245285125,-0.104356499946973,0.01181058680228341,0.0215404458448879,112893.234452125,-0.2105573678797897,0.06605286246650283,0.09505629587069921,0.08504549413919449,0.01181322894990444,0.101630337536335,0.07085929811000824,0.03523608669638634,0.1491069346666336,XArbitraryZVertical,0.05068745250915487,0.02781066202281268,-0.1033482842566723,0.9929634844127893,0.06570686399936676,-0.09491320699453354,-0.9933146834373474,0,0,0,-1
2015-06-06 10:39:45.825,116,1433576385.566748,51.73549890523007,39.26764701496742,105.1006,1.92,356.484375,32,10,-9999,1433576385.813576,-21.36445045471191,125.6190643310547,339.7594604492188,13.33656311035156,3.902379512786865,-1,112893.253771125,0.1246185302734375,-0.0910797119140625,-0.8749542236328125,112893.256119125,-0.1711512432472503,-0.03181891607204872,-0.03677505886068618,112893.245285125,-0.2100834148227588,0.06537589266589949,0.09517804040166977,-0.01848001778125763,-0.07888558506965637,0.02666021510958672,0.05935599654912949,0.006624980829656124,0.1414950042963028,XArbitraryZVertical,0.05070638160665274,0.02748009415421777,-0.1031278416234959,0.9929946402532672,0.06503365188837051,-0.0950344055891037,-0.9933474063873291,0,0,0,-1
2015-06-06 10:39:45.835,117,1433576385.566748,51.73549890523007,39.26764701496742,105.1006,1.92,356.484375,32,10,-9999,1433576385.813576,-21.36445045471191,125.6190643310547,339.7594604492188,13.33656311035156,3.902379512786865,-1,112893.263491125,0.1260833740234375,-0.0800018310546875,-0.882904052734375,112893.266953125,-0.2207331774740186,-0.01041775355217196,-0.09679418771558396,112893.245285125,-0.2100834148227588,0.06537589266589949,0.09517804040166977,-0.01848001778125763,-0.07888558506965637,0.02666021510958672,0.05935599654912949,0.006624980829656124,0.1414950042963028,XArbitraryZVertical,0.05070638160665274,0.02748009415421777,-0.1031278416234959,0.9929946402532672,0.06503365188837051,-0.0950344055891037,-0.9933474063873291,0,0,0,-1
2015-06-06 10:39:45.843,118,1433576385.566748,51.73549890523007,39.26764701496742,105.1006,1.92,356.484375,32,10,-9999,1433576385.813576,-21.36445045471191,125.6190643310547,339.7594604492188,13.33656311035156,3.902379512786865,-1,112893.273219125,0.129974365234375,-0.06744384765625,-0.89068603515625,112893.266953125,-0.2207331774740186,-0.01041775355217196,-0.09679418771558396,112893.245285125,-0.2100834148227588,0.06537589266589949,0.09517804040166977,-0.01848001778125763,-0.07888558506965637,0.02666021510958672,0.05935599654912949,0.006624980829656124,0.1414950042963028,XArbitraryZVertical,0.05070638160665274,0.02748009415421777,-0.1031278416234959,0.9929946402532672,0.06503365188837051,-0.0950344055891037,-0.9933474063873291,0,0,0,-1
2015-06-06 10:39:45.866,119,1433576385.566748,51.73549890523007,39.26764701496742,105.1006,1.92,356.484375,32,10,-9999,1433576385.854494,-20.81691932678223,125.6875152587891,339.6263732910156,12.70741939544678,3.273235082626343,-1,112893.282955125,0.13604736328125,-0.06182861328125,-0.896331787109375,112893.277786125,-0.2525659419837357,0.03033233955156649,-0.1357924534542683,112893.256119125,-0.2102166122817768,0.06414644930625447,0.09440558666708956,-0.08527494221925735,-0.1225148886442184,-0.03165530413389206,0.06080150604248047,0.003185706911608577,0.1185453608632088,XArbitraryZVertical,0.05026136133837732,0.02690733903334501,-0.1032393475671896,0.9930213632024538,0.06381702423095703,-0.094265416264534,-0.9934995770454407,0,0,0,-1
2015-06-06 10:39:45.868,120,1433576385.566748,51.73549890523007,39.26764701496742,105.1006,1.92,356.484375,32,10,-9999,1433576385.854494,-20.81691932678223,125.6875152587891,339.6263732910156,12.70741939544678,3.273235082626343,-1,112893.292659125,0.1383209228515625,-0.04638671875,-0.9060211181640625,112893.288620125,-0.257615828042744,0.05792508528976847,-0.169627116155398,112893.266953125,-0.2109678254433442,0.06303043842547476,0.09301899298651907,-0.1348570734262466,-0.1011135280132294,-0.09167443960905075,0.06336697190999985,0.01288307830691338,0.1107956245541573,XArbitraryZVertical,0.04952540341545215,0.02640826217386378,-0.103665479136936,0.9930273443066933,0.06271640211343765,-0.09288490563631058,-0.9936996698379517,0,0,0,-1
2015-06-06 10:39:45.873,121,1433576385.566748,51.73549890523007,39.26764701496742,105.1006,1.92,356.484375,32,10,-9999,1433576385.854494,-20.81691932678223,125.6875152587891,339.6263732910156,12.70741939544678,3.273235082626343,-1,112893.302394125,0.1302032470703125,-0.03338623046875,-0.91796875,112893.299484125,-0.2217110902262957,0.09048302856431419,-0.1834033821582689,112893.288620125,-0.2137706906474276,0.06209403966017486,0.08924408217354173,-0.1717400103807449,-0.03277039527893066,-0.1645073890686035,0.07424017041921616,0.02729705162346363,0.09776905924081802,XArbitraryZVertical,0.04763962337508809,0.02607766557681312,-0.1051475943506427,0.9929725097126393,0.06180719286203384,-0.08912566304206848,-0.9941008687019348,0,0,0,-1
2015-06-06 10:39:45.882,122,1433576385.566748,51.73549890523007,39.26764701496742,105.1006,1.92,356.484375,32,10,-9999,1433576385.854494,-20.81691932678223,125.6875152587891,339.6263732910156,12.70741939544678,3.273235082626343,-1,112893.312129125,0.122772216796875,-0.025970458984375,-0.9351806640625,112893.310301125,-0.1401097038973957,0.1304498859914603,-0.1661184014192186,112893.299484125,-0.2155898397398351,0.06215416395192889,0.08753318541595187,-0.1358354389667511,-0.0002122607256751508,-0.1782836616039276,0.07644458115100861,0.04103472828865051,0.08822674304246902,XArbitraryZVertical,0.04681739523887089,0.02615723875228491,-0.1060797649321949,0.9929103755303571,0.06187634542584419,-0.08742144703865051,-0.9942478537559509,0,0,0,-1
2015-06-06 10:39:45.892,123,1433576385.566748,51.73549890523007,39.26764701496742,105.1006,1.92,356.484375,32,10,-9999,1433576385.854494,-20.81691932678223,125.6875152587891,339.6263732910156,12.70741939544678,3.273235082626343,-1,112893.321834125,0.12139892578125,-0.0220947265625,-0.951416015625,112893.321129125,-0.03906830687535342,0.1596658284140656,-0.1352758002027929,112893.310301125,-0.2173555052667029,0.06262669836642754,0.0865803783683218,-0.05423424765467644,0.03975480049848557,-0.1609986871480942,0.06785190850496292,0.05308602005243301,0.07633244246244431,XArbitraryZVertical,0.0463928964312023,0.02640270940868593,-0.1069622881634462,0.9928291217563299,0.06235133856534958,-0.08647225052118301,-0.9943011999130249,0,0,0,-1
2015-06-06 10:39:45.902,124,1433576385.566748,51.73549890523007,39.26764701496742,105.1006,1.92,356.484375,32,10,-9999,1433576385.89311,-20.98802185058594,125.9954986572266,339.7927856445312,12.4668025970459,3.032618761062622,-1,112893.331569125,0.121978759765625,-0.0287933349609375,-0.96746826171875,112893.331991125,0.06702137830904312,0.1684699726617586,-0.08873706015365823,112893.321129125,-0.2190994992936583,0.06623954459263395,0.08429582942099401,0.04678858816623688,0.06899283081293106,-0.1301633417606354,0.05681613087654114,0.05822557583451271,0.05908329784870148,XArbitraryZVertical,0.04547701664226423,0.02828181026554333,-0.1077868631332011,0.9927305637993267,0.06595608592033386,-0.08419603109359741,-0.9942639470100403,0,0,0,-1
2015-06-06 10:39:45.912,125,1433576385.566748,51.73549890523007,39.26764701496742,105.1006,1.92,356.484375,32,10,-9999,1433576385.89311,-20.98802185058594,125.9954986572266,339.7927856445312,12.4668025970459,3.032618761062622,-1,112893.341289125,0.1188812255859375,-0.0362091064453125,-0.9782867431640625,112893.342819125,0.1609750384059486,0.1736663325807212,-0.02664386144180675,112893.331991125,-0.2202204263593291,0.06716341177597585,0.08557361987928051,0.1528779864311218,0.07779727131128311,-0.08362462371587753,0.05511141195893288,0.05667588114738464,0.02662618644535542,XArbitraryZVertical,0.04617689868176306,0.02864385304289992,-0.1082979282659711,0.9926322493473054,0.06686735153198242,-0.08546921610832214,-0.9940944314002991,0,0,0,-1
2015-06-06 10:39:45.921,126,1433576385.566748,51.73549890523007,39.26764701496742,105.1006,1.92,356.484375,32,10,-9999,1433576385.89311,-20.98802185058594,125.9954986572266,339.7927856445312,12.4668025970459,3.032618761062622,-1,112893.351040125,0.11474609375,-0.0476837158203125,-0.9786376953125,112893.342819125,0.1609750384059486,0.1736663325807212,-0.02664386144180675,112893.331991125,-0.2202204263593291,0.06716341177597585,0.08557361987928051,0.1528779864311218,0.07779727131128311,-0.08362462371587753,0.05511141195893288,0.05667588114738464,0.02662618644535542,XArbitraryZVertical,0.04617689868176306,0.02864385304289992,-0.1082979282659711,0.9926322493473054,0.06686735153198242,-0.08546921610832214,-0.9940944314002991,0,0,0,-1
2015-06-06 10:39:45.945,127,1433576385.566748,51.73549890523007,39.26764701496742,105.1006,1.92,356.484375,32,10,-9999,1433576385.933419,-21.02224349975586,126.4403686523438,339.6263122558594,11.40826797485352,1.97408401966095,-1,112893.360744125,0.1080169677734375,-0.05670166015625,-0.9617919921875,112893.353653125,0.2272826895428504,0.1739326486897291,0.01559307449852295,112893.331991125,-0.2202204263593291,0.06716341177597585,0.08557361987928051,0.1528779864311218,0.07779727131128311,-0.08362462371587753,0.05511141195893288,0.05667588114738464,0.02662618644535542,XArbitraryZVertical,0.04617689868176306,0.02864385304289992,-0.1082979282659711,0.9926322493473054,0.06686735153198242,-0.08546921610832214,-0.9940944314002991,0,0,0,-1
2015-06-06 10:39:45.946,128,1433576385.566748,51.73549890523007,39.26764701496742,105.1006,1.92,356.484375,32,10,-9999,1433576385.933419,-21.02224349975586,126.4403686523438,339.6263122558594,11.40826797485352,1.97408401966095,-1,112893.370479125,0.0993194580078125,-0.0648651123046875,-0.9480133056640625,112893.364487125,0.2610318647729886,0.1704809256008774,0.04760879817512852,112893.353653125,-0.2210586056223773,0.07097521495645326,0.08957786332793131,0.3131263256072998,0.08327570557594299,0.02070050872862339,0.04411478340625763,0.04177439585328102,0.01484530139714479,XArbitraryZVertical,0.04838241507103652,0.03029263514244499,-0.1085454962347585,0.9924511944751602,0.07063131034374237,-0.08945811539888382,-0.9934830069541931,0,0,0,-1
2015-06-06 10:39:45.950,129,1433576385.566748,51.73549890523007,39.26764701496742,105.1006,1.92,356.484375,32,10,-9999,1433576385.933419,-21.02224349975586,126.4403686523438,339.6263122558594,11.40826797485352,1.97408401966095,-1,112893.380215125,0.090240478515625,-0.078369140625,-0.9295501708984375,112893.375321125,0.2480337744406389,0.1439984517211295,0.06056294634949196,112893.364487125,-0.220818479154171,0.07183748583787949,0.09331084420272255,0.3468753099441528,0.07982418686151505,0.0527162216603756,0.03655349835753441,0.0364738330245018,0.0312897264957428,XArbitraryZVertical,0.05027717327415566,0.03051797073450396,-0.1083295269990845,0.9923737062669309,0.07146346569061279,-0.0931754931807518,-0.9930816888809204,0,0,0,-1
2015-06-06 10:39:45.960,130,1433576385.566748,51.73549890523007,39.26764701496742,105.1006,1.92,356.484375,32,10,-9999,1433576385.933419,-21.02224349975586,126.4403686523438,339.6263122558594,11.40826797485352,1.97408401966095,-1,112893.389919125,0.0902099609375,-0.091094970703125,-0.9032440185546875,112893.386154125,0.1869171569005194,0.1041178807133019,0.05814080133806489,112893.364487125,-0.220818479154171,0.07183748583787949,0.09331084420272255,0.3468753099441528,0.07982418686151505,0.0527162216603756,0.03655349835753441,0.0364738330245018,0.0312897264957428,XArbitraryZVertical,0.05027717327415566,0.03051797073450396,-0.1083295269990845,0.9923737062669309,0.07146346569061279,-0.0931754931807518,-0.9930816888809204,0,0,0,-1
2015-06-06 10:39:45.970,131,1433576385.566748,51.73549890523007,39.26764701496742,105.1006,1.92,356.484375,32,10,-9999,1433576385.933419,-21.02224349975586,126.4403686523438,339.6263122558594,11.40826797485352,1.97408401966095,-1,112893.399655125,0.0868072509765625,-0.10211181640625,-0.880157470703125,112893.396988125,0.1151710645015667,0.04974811547878918,0.04696644372020142,112893.386154125,-0.2199414088433869,0.07265951243909337,0.1002055985432601,0.2727603316307068,0.01346143521368504,0.06324820965528488,0.01800904981791973,0.02166884578764439,0.06280814111232758,XArbitraryZVertical,0.05372774578582565,0.0305642383620671,-0.1077310600233925,0.9922566076234304,0.07223142683506012,-0.1000379845499992,-0.9923583269119263,0,0,0,-1
2015-06-06 10:39:45.979,132,1433576385.566748,51.73549890523007,39.26764701496742,105.1006,1.92,356.484375,32,10,-9999,1433576385.972089,-21.1933479309082,125.7901611328125,339.6596069335938,10.84498310089111,1.410798668861389,-1,112893.409390125,0.084930419921875,-0.115478515625,-0.863128662109375,112893.407818125,0.02039528657615383,-0.002272741674273622,0.03667199452650012,112893.396988125,-0.2196137178733233,0.07334468439220303,0.1026032625135379,0.2010143250226974,-0.04090042784810066,0.05207188054919243,0.01731639914214611,0.01132836192846298,0.08882250636816025,XArbitraryZVertical,0.05494862164775207,0.03077964570291805,-0.1074997838887287,0.9922081731437677,0.07289355993270874,-0.102423332631588,-0.992066502571106,0,0,0,-1
2015-06-06 10:39:45.989,133,1433576385.566748,51.73549890523007,39.26764701496742,105.1006,1.92,356.484375,32,10,-9999,1433576385.972089,-21.1933479309082,125.7901611328125,339.6596069335938,10.84498310089111,1.410798668861389,-1,112893.419093125,0.08551025390625,-0.1276397705078125,-0.849700927734375,112893.418656125,-0.03944274732461855,-0.03978309931193068,0.01609667826065693,112893.407818125,-0.219238112472496,0.07244319961176296,0.1040389469668309,0.1062383651733398,-0.09292108565568924,0.04177741706371307,0.01481876894831657,0.001739544095471501,0.1118266806006432,XArbitraryZVertical,0.055606431302776,0.03026301239775196,-0.1073083390537667,0.9922081410913269,0.07198848575353622,-0.1038513630628586,-0.9919841289520264,0,0,0,-1
2015-06-06 10:39:45.999,134,1433576385.566748,51.73549890523007,39.26764701496742,105.1006,1.92,356.484375,32,10,-9999,1433576385.972089,-21.1933479309082,125.7901611328125,339.6596069335938,10.84498310089111,1.410798668861389,-1,112893.428828125,0.0870208740234375,-0.13067626953125,-0.844573974609375,112893.429489125,-0.08242669995071548,-0.07242945953466702,-0.001763278957741464,112893.418656125,-0.2189859112595964,0.0711019204974874,0.1047104484495888,0.04640014842152596,-0.1304312497377396,0.0212020929902792,0.01427750010043383,-0.01095930766314268,0.1288813650608063,XArbitraryZVertical,0.05586372802399486,0.02956735969838714,-0.1072067266063318,0.9922256461622447,0.07065291702747345,-0.104519210755825,-0.9920100569725037,0,0,0,-1
2015-06-06 10:39:46.026,135,1433576385.566748,51.73549890523007,39.26764701496742,105.1006,1.92,356.484375,32,10,-9999,1433576386.011371,-21.74087905883789,125.1741790771484,339.6596069335938,10.99297714233398,1.558792591094971,-1,112893.438546125,0.0826873779296875,-0.13568115234375,-0.8444366455078125,112893.440354125,-0.1051916672648218,-0.0773626991379298,-0.02882126194905553,112893.429489125,-0.2189234261406679,0.0694003013134572,0.104836132945112,0.003415919374674559,-0.1630773097276688,0.003342119278386235,0.01805699057877064,-0.02603206597268581,0.147541731595993,XArbitraryZVertical,0.05583392831325692,0.02871793143875077,-0.1072206932635043,0.9922507625590844,0.06896388530731201,-0.104644201695919,-0.9921156764030457,0,0,0,-1
2015-06-06 10:39:46.027,136,1433576385.566748,51.73549890523007,39.26764701496742,105.1006,1.92,356.484375,32,10,-9999,1433576386.011371,-21.74087905883789,125.1741790771484,339.6596069335938,10.99297714233398,1.558792591094971,-1,112893.448299125,0.08343505859375,-0.137969970703125,-0.851165771484375,112893.440354125,-0.1051916672648218,-0.0773626991379298,-0.02882126194905553,112893.429489125,-0.2189234261406679,0.0694003013134572,0.104836132945112,0.003415919374674559,-0.1630773097276688,0.003342119278386235,0.01805699057877064,-0.02603206597268581,0.147541731595993,XArbitraryZVertical,0.05583392831325692,0.02871793143875077,-0.1072206932635043,0.9922507625590844,0.06896388530731201,-0.104644201695919,-0.9921156764030457,0,0,0,-1
2015-06-06 10:39:46.028,137,1433576385.566748,51.73549890523007,39.26764701496742,105.1006,1.92,356.484375,32,10,-9999,1433576386.011371,-21.74087905883789,125.1741790771484,339.6596069335938,10.99297714233398,1.558792591094971,-1,112893.458003125,0.08367919921875,-0.1424560546875,-0.8635101318359375,112893.451184125,-0.1170192982980817,-0.08228581872905029,-0.06420162334686721,112893.429489125,-0.2189234261406679,0.0694003013134572,0.104836132945112,0.003415919374674559,-0.1630773097276688,0.003342119278386235,0.01805699057877064,-0.02603206597268581,0.147541731595993,XArbitraryZVertical,0.05583392831325692,0.02871793143875077,-0.1072206932635043,0.9922507625590844,0.06896388530731201,-0.104644201695919,-0.9921156764030457,0,0,0,-1
2015-06-06 10:39:46.038,138,1433576385.566748,51.73549890523007,39.26764701496742,105.1006,1.92,356.484375,32,10,-9999,1433576386.011371,-21.74087905883789,125.1741790771484,339.6596069335938,10.99297714233398,1.558792591094971,-1,112893.467738125,0.0796966552734375,-0.1478118896484375,-0.876922607421875,112893.462021125,-0.128555579508087,-0.1052718284136332,-0.1045559707126199,112893.451184125,-0.2195994221130933,0.06580309174271566,0.1043196204512243,-0.03117705136537552,-0.1729332804679871,-0.05909624695777893,0.01803691685199738,-0.03383945673704147,0.1412453949451447,XArbitraryZVertical,0.05539392784692749,0.02694309778824509,-0.1076662435636067,0.9922769584325567,0.06539814174175262,-0.1041305139660835,-0.9924111366271973,0,0,0,-1
2015-06-06 10:39:46.047,139,1433576385.566748,51.73549890523007,39.26764701496742,105.1006,1.92,356.484375,32,10,-9999,1433576386.011371,-21.74087905883789,125.1741790771484,339.6596069335938,10.99297714233398,1.558792591094971,-1,112893.477473125,0.085418701171875,-0.152313232421875,-0.897796630859375,112893.472855125,-0.1521405341218287,-0.1354893857222173,-0.1354433130353589,112893.462021125,-0.2205661488128536,0.06385907931583541,0.1038311854117668,-0.04271352291107178,-0.1959190964698792,-0.09945060312747955,0.02020720019936562,-0.0388113334774971,0.1290769279003143,XArbitraryZVertical,0.05505956294626706,0.02597908950548826,-0.1082088020066195,0.9922622569688546,0.06347199529409409,-0.1036447212100029,-0.9925870895385742,0,0,0,-1
2015-06-06 10:39:46.057,140,1433576385.566748,51.73549890523007,39.26764701496742,105.1006,1.92,356.484375,32,10,-9999,1433576386.052073,-21.67243957519531,125.5163955688477,338.9939575195312,12.27979469299316,2.84561014175415,-1,112893.487182125,0.0874786376953125,-0.1585540771484375,-0.9168853759765625,112893.483689125,-0.1769566681075141,-0.163308500153076,-0.1687575940594871,112893.472855125,-0.2218683339623402,0.06162176114237151,0.1031006956205961,-0.06629865616559982,-0.2261364609003067,-0.1303379535675049,0.01844090037047863,-0.04489375278353691,0.1158792823553085,XArbitraryZVertical,0.0545923825153183,0.02487423505859349,-0.1089296347929498,0.99223751131744,0.06125575304031372,-0.1029181331396103,-0.9928019046783447,0,0,0,-1
2015-06-06 10:39:46.067,141,1433576385.566748,51.73549890523007,39.26764701496742,105.1006,1.92,356.484375,32,10,-9999,1433576386.052073,-21.67243957519531,125.5163955688477,338.9939575195312,12.27979469299316,2.84561014175415,-1,112893.496913125,0.093780517578125,-0.16912841796875,-0.930328369140625,112893.494522125,-0.1836001897628257,-0.1922858233420102,-0.2030170309544845,112893.483689125,-0.2234838332189501,0.05912043711700445,0.1020586013357681,-0.09111488610506058,-0.2539554834365845,-0.163652241230011,0.02664014883339405,-0.05043171346187592,0.09526189416646957,XArbitraryZVertical,0.05395837500863312,0.02364805211744454,-0.1098175558136441,0.992204297426995,0.0587785504758358,-0.1018815189599991,-0.9930585026741028,0,0,0,-1
2015-06-06 10:39:46.077,142,1433576385.566748,51.73549890523007,39.26764701496742,105.1006,1.92,356.484375,32,10,-9999,1433576386.052073,-21.67243957519531,125.5163955688477,338.9939575195312,12.27979469299316,2.84561014175415,-1,112893.506648125,0.0960845947265625,-0.178253173828125,-0.949432373046875,112893.505366125,-0.1636552437270043,-0.2163948880582795,-0.2441144002643692,112893.494522125,-0.2254886817564915,0.05633612467762361,0.1008937753854583,-0.09775859117507935,-0.2829326093196869,-0.1979116946458817,0.03145864978432655,-0.05783139169216156,0.07645077258348465,XArbitraryZVertical,0.05325008559030147,0.02227902029795537,-0.1109067541966681,0.9921530958036416,0.05601998791098595,-0.1007226854562759,-0.9933361411094666,0,0,0,-1
2015-06-06 10:39:46.088,143,1433576385.566748,51.73549890523007,39.26764701496742,105.1006,1.92,356.484375,32,10,-9999,1433576386.052073,-21.67243957519531,125.5163955688477,338.9939575195312,12.27979469299316,2.84561014175415,-1,112893.516383125,0.093597412109375,-0.1825103759765625,-0.972503662109375,112893.516190125,-0.1366870092644259,-0.2224431932099585,-0.2898278266916884,112893.505366125,-0.227932798924669,0.05329956511235347,0.09984901451775001,-0.07781382650136948,-0.3070414662361145,-0.2390090674161911,0.04077153280377388,-0.06944523006677628,0.06327784806489944,XArbitraryZVertical,0.05258890774473576,0.02076774775780874,-0.1122166917733413,0.9920738488251427,0.05300898477435112,-0.09968318790197372,-0.9936062097549438,0,0,0,-1
2015-06-06 10:39:46.107,144,1433576385.566748,51.73549890523007,39.26764701496742,105.1006,1.92,356.484375,32,10,-9999,1433576386.091016,-21.74088096618652,125.9954833984375,338.7276916503906,13.42723369598389,3.993049621582031,-1,112893.526103125,0.0911865234375,-0.19110107421875,-0.9956207275390625,112893.527024125,-0.1108418298335339,-0.2297248082624531,-0.3476932571730391,112893.516190125,-0.23105575208314,0.05203531057188234,0.1023322873816132,-0.05081890150904655,-0.3130762279033661,-0.2847235798835754,0.04434485733509064,-0.07609939575195312,0.04398979619145393,XArbitraryZVertical,0.05378052660696771,0.01991408197410289,-0.113759621740342,0.991851719138754,0.05173973739147186,-0.1021537780761719,-0.9934221506118774,0,0,0,-1
2015-06-06 10:39:46.108,145,1433576385.566748,51.73549890523007,39.26764701496742,105.1006,1.92,356.484375,32,10,-9999,1433576386.091016,-21.74088096618652,125.9954833984375,338.7276916503906,13.42723369598389,3.993049621582031,-1,112893.535829125,0.08819580078125,-0.20672607421875,-1.012847900390625,112893.537857125,-0.07911932019294607,-0.2261537755567659,-0.4029674319137427,112893.527024125,-0.2345948716788316,0.0489507491780749,0.1018165325779699,-0.02497399412095547,-0.3203575611114502,-0.3425890207290649,0.04250872880220413,-0.08946036547422409,-0.001991199795156717,XArbitraryZVertical,0.05338180405483186,0.01831990958820794,-0.1156052437256578,0.991690572472918,0.04867779463529587,-0.1016407087445259,-0.993629515171051,0,0,0,-1
2015-06-06 10:39:46.116,146,1433576385.566748,51.73549890523007,39.26764701496742,105.1006,1.92,356.484375,32,10,-9999,1433576386.091016,-21.74088096618652,125.9954833984375,338.7276916503906,13.42723369598389,3.993049621582031,-1,112893.545558125,0.0825347900390625,-0.2129974365234375,-1.028579711914062,112893.537857125,-0.07911932019294607,-0.2261537755567659,-0.4029674319137427,112893.527024125,-0.2345948716788316,0.0489507491780749,0.1018165325779699,-0.02497399412095547,-0.3203575611114502,-0.3425890207290649,0.04250872880220413,-0.08946036547422409,-0.001991199795156717,XArbitraryZVertical,0.05338180405483186,0.01831990958820794,-0.1156052437256578,0.991690572472918,0.04867779463529587,-0.1016407087445259,-0.993629515171051,0,0,0,-1
2015-06-06 10:39:46.125,147,1433576385.566748,51.73549890523007,39.26764701496742,105.1006,1.92,356.484375,32,10,-9999,1433576386.091016,-21.74088096618652,125.9954833984375,338.7276916503906,13.42723369598389,3.993049621582031,-1,112893.555293125,0.07208251953125,-0.2165069580078125,-1.042526245117188,112893.548703125,-0.04156794987450179,-0.2117114529652661,-0.4471625902036076,112893.527024125,-0.2345948716788316,0.0489507491780749,0.1018165325779699,-0.02497399412095547,-0.3203575611114502,-0.3425890207290649,0.04250872880220413,-0.08946036547422409,-0.001991199795156717,XArbitraryZVertical,0.05338180405483186,0.01831990958820794,-0.1156052437256578,0.991690572472918,0.04867779463529587,-0.1016407087445259,-0.993629515171051,0,0,0,-1
2015-06-06 10:39:46.135,148,1433576385.566748,51.73549890523007,39.26764701496742,105.1006,1.92,356.484375,32,10,-9999,1433576386.130592,-21.80932235717773,125.7901763916016,339.3933410644531,15.44671249389648,6.012527942657471,-1,112893.564999125,0.072296142578125,-0.2227783203125,-1.058349609375,112893.559525125,-0.009075520362772028,-0.1912139010032533,-0.4683517651007141,112893.548703125,-0.2435919171595791,0.04397251888875559,0.1042805412839744,0.0443199947476387,-0.3023378551006317,-0.4420580565929413,0.03881523385643959,-0.1089057922363281,-0.0349733866751194,XArbitraryZVertical,0.05438544488275349,0.01546158748933067,-0.1201633510396188,0.9911427403578889,0.04371955618262291,-0.1040916442871094,-0.9936063289642334,0,0,0,-1
2015-06-06 10:39:46.145,149,1433576385.566748,51.73549890523007,39.26764701496742,105.1006,1.92,356.484375,32,10,-9999,1433576386.130592,-21.80932235717773,125.7901763916016,339.3933410644531,15.44671249389648,6.012527942657471,-1,112893.574734125,0.0715789794921875,-0.2298736572265625,-1.074966430664062,112893.570389125,0.01224894311771045,-0.1610639879863572,-0.465389531020219,112893.559525125,-0.2486352902943447,0.04136626704519414,0.1048087093088029,0.07681223750114441,-0.2818401157855988,-0.4632472097873688,0.03095497749745846,-0.1118900254368782,-0.04886442050337791,XArbitraryZVertical,0.05452596725657743,0.01400022071346417,-0.1227260124730165,0.9908426911357743,0.04112754017114639,-0.1046169325709343,-0.9936618208885193,0,0,0,-1
2015-06-06 10:39:46.155,150,1433576385.566748,51.73549890523007,39.26764701496742,105.1006,1.92,356.484375,32,10,-9999,1433576386.130592,-21.80932235717773,125.7901763916016,339.3933410644531,15.44671249389648,6.012527942657471,-1,112893.584457125,0.0767669677734375,-0.2294158935546875,-1.08258056640625,112893.581223125,0.05476577728860747,-0.09831991270409035,-0.4424730298400871,112893.570389125,-0.2537153756214521,0.03907438346936749,0.1056188772152965,0.09813651442527771,-0.251690000295639,-0.4602849781513214,0.03344938904047012,-0.1173557043075562,-0.06468115001916885,XArbitraryZVertical,0.05481893990132501,0.01267499899873212,-0.1252943048506826,0.9905228747487173,0.03884675353765488,-0.1054226160049438,-0.9936684370040894,0,0,0,-1
2015-06-06 10:39:46.164,151,1433576385.566748,51.73549890523007,39.26764701496742,105.1006,1.92,356.484375,32,10,-9999,1433576386.130592,-21.80932235717773,125.7901763916016,339.3933410644531,15.44671249389648,6.012527942657471,-1,112893.594174125,0.07147216796875,-0.227264404296875,-1.092666625976562,112893.592056125,0.1163439206456376,-0.02464009903763113,-0.3949374685949357,112893.581223125,-0.2586071675200177,0.03736227386916401,0.1068170609377471,0.1406532526016235,-0.1889458298683167,-0.4373684823513031,0.03443829342722893,-0.123259611427784,-0.08135986328125,XArbitraryZVertical,0.05533349793284629,0.01161548254945282,-0.1277483691844687,0.9901937379838197,0.03714068606495857,-0.1066140457987785,-0.9936065673828125,0,0,0,-1
2015-06-06 10:39:46.184,152,1433576385.566748,51.73549890523007,39.26764701496742,105.1006,1.92,356.484375,32,10,-9999,1433576386.170928,-22.73328590393066,125.2768707275391,339.69287109375,17.75093841552734,8.316753387451172,-1,112893.603909125,0.0620880126953125,-0.22113037109375,-1.100296020507812,112893.602884125,0.1646581901935281,0.05018407494923515,-0.3585086206759598,112893.592056125,-0.2631281035164241,0.03701860505735471,0.1106377347070275,0.2022471725940704,-0.1152617484331131,-0.3898325264453888,0.03998310118913651,-0.1190037354826927,-0.08937560021877289,XArbitraryZVertical,0.05722772956946651,0.01106817522670391,-0.129947238392993,0.9898061414739308,0.03678386658430099,-0.1104121580719948,-0.9932049512863159,0,0,0,-1
2015-06-06 10:39:46.185,153,1433576385.566748,51.73549890523007,39.26764701496742,105.1006,1.92,356.484375,32,10,-9999,1433576386.170928,-22.73328590393066,125.2768707275391,339.69287109375,17.75093841552734,8.316753387451172,-1,112893.613643125,0.0506439208984375,-0.2121124267578125,-1.107925415039062,112893.613724125,0.1710130251866752,0.1008134304327315,-0.3289507283693884,112893.602884125,-0.267177726198293,0.03684269004409054,0.1130914091876828,0.2505612373352051,-0.04043737798929214,-0.3534036874771118,0.0348731093108654,-0.1144139096140862,-0.09972892701625824,XArbitraryZVertical,0.05845204758664092,0.01070086604327256,-0.1319246807747068,0.9894769973078434,0.0365990586578846,-0.1128504946827888,-0.9929376840591431,0,0,0,-1
2015-06-06 10:39:46.194,154,1433576385.566748,51.73549890523007,39.26764701496742,105.1006,1.92,356.484375,32,10,-9999,1433576386.170928,-22.73328590393066,125.2768707275391,339.69287109375,17.75093841552734,8.316753387451172,-1,112893.623352125,0.041839599609375,-0.2052459716796875,-1.1197509765625,112893.624558125,0.06414836012506564,0.1054712991792801,-0.2735455261030529,112893.613724125,-0.2708986301294974,0.03729962360358893,0.1157746683854565,0.256915807723999,0.01019226666539907,-0.3238458335399628,0.01360258646309376,-0.09659621864557266,-0.1153107136487961,XArbitraryZVertical,0.0598291560990365,0.01063584886221022,-0.1337168551722039,0.9891547671837376,0.03704133257269859,-0.1155162081122398,-0.9926146864891052,0,0,0,-1
2015-06-06 10:39:46.204,155,1433576385.566748,51.73549890523007,39.26764701496742,105.1006,1.92,356.484375,32,10,-9999,1433576386.170928,-22.73328590393066,125.2768707275391,339.69287109375,17.75093841552734,8.316753387451172,-1,112893.633104125,0.034576416015625,-0.18939208984375,-1.123641967773438,112893.635391125,-0.1318443171382258,0.07383614122244687,-0.1979221374730539,112893.624558125,-0.2740679051387403,0.03784366114848895,0.1176974961820358,0.1500509530305862,0.01485033426433802,-0.2684406340122223,0.004266724456101656,-0.08782002329826355,-0.12738037109375,XArbitraryZVertical,0.06083319663410631,0.01067789984271799,-0.1352422047304077,0.9888856610861969,0.03757287561893463,-0.117425948381424,-0.99237060546875,0,0,0,-1
2015-06-06 10:39:46.213,156,1433576385.566748,51.73549890523007,39.26764701496742,105.1006,1.92,356.484375,32,10,-9999,1433576386.209835,-22.15153121948242,124.7635650634766,340.1920776367188,18.51053619384766,9.076353073120117,-1,112893.642819125,0.04443359375,-0.2113494873046875,-1.123245239257812,112893.635391125,-0.1318443171382258,0.07383614122244687,-0.1979221374730539,112893.624558125,-0.2740679051387403,0.03784366114848895,0.1176974961820358,0.1500509530305862,0.01485033426433802,-0.2684406340122223,0.004266724456101656,-0.08782002329826355,-0.12738037109375,XArbitraryZVertical,0.06083319663410631,0.01067789984271799,-0.1352422047304077,0.9888856610861969,0.03757287561893463,-0.117425948381424,-0.99237060546875,0,0,0,-1
2015-06-06 10:39:46.223,157,1433576385.566748,51.73549890523007,39.26764701496742,105.1006,1.92,356.484375,32,10,-9999,1433576386.209835,-22.15153121948242,124.7635650634766,340.1920776367188,18.51053619384766,9.076353073120117,-1,112893.652553125,0.06768798828125,-0.266998291015625,-1.110565185546875,112893.646225125,-0.345171243620734,0.009528524064194506,-0.1822116175704584,112893.624558125,-0.2740679051387403,0.03784366114848895,0.1176974961820358,0.1500509530305862,0.01485033426433802,-0.2684406340122223,0.004266724456101656,-0.08782002329826355,-0.12738037109375,XArbitraryZVertical,0.06083319663410631,0.01067789984271799,-0.1352422047304077,0.9888856610861969,0.03757287561893463,-0.117425948381424,-0.99237060546875,0,0,0,-1
2015-06-06 10:39:46.232,158,1433576385.566748,51.73549890523007,39.26764701496742,105.1006,1.92,356.484375,32,10,-9999,1433576386.209835,-22.15153121948242,124.7635650634766,340.1920776367188,18.51053619384766,9.076353073120117,-1,112893.662288125,0.07049560546875,-0.259979248046875,-1.124160766601562,112893.657059125,-0.5295466795768818,-0.09822004416321238,-0.2524658071267487,112893.646225125,-0.2782033888993651,0.03755638568081196,0.1153376791624172,-0.2592690289020538,-0.08109204471111298,-0.1771067529916763,0.007135502994060516,-0.09626735746860504,-0.1305897384881973,XArbitraryZVertical,0.05966928087464358,0.01057465850722895,-0.1373268421339059,0.9886703656663776,0.03729809075593948,-0.1150821298360825,-0.9926555156707764,0,0,0,-1
2015-06-06 10:39:46.242,159,1433576385.566748,51.73549890523007,39.26764701496742,105.1006,1.92,356.484375,32,10,-9999,1433576386.209835,-22.15153121948242,124.7635650634766,340.1920776367188,18.51053619384766,9.076353073120117,-1,112893.672023125,0.03955078125,-0.1777191162109375,-1.16766357421875,112893.667908125,-0.6830166637148781,-0.155411162256555,-0.3546339876060036,112893.657059125,-0.2804983275536285,0.03607099994670565,0.1109358509319156,-0.443644642829895,-0.1888404190540314,-0.2473609447479248,0.03184649348258972,-0.1562898457050323,-0.1173587515950203,XArbitraryZVertical,0.05740337525054922,0.01008136452637467,-0.1385621389862753,0.988637320880959,0.03584149479866028,-0.1107084453105927,-0.9932064414024353,0,0,0,-1
2015-06-06 10:39:46.264,160,1433576385.566748,51.73549890523007,39.26764701496742,105.1006,1.92,356.484375,32,10,-9999,1433576386.249472,-22.15153121948242,124.5582427978516,340.1255493164062,18.71931076049805,9.285125732421875,-1,112893.681728125,0.0058441162109375,-0.0931549072265625,-1.21240234375,112893.678726125,-0.7101438888945342,-0.1737046821004183,-0.4315703146534117,112893.667908125,-0.2838203125301574,0.03388131196431863,0.1047101491506037,-0.5971147418022156,-0.2460314333438873,-0.3495291173458099,0.03680631145834923,-0.1554603427648544,-0.1302086412906647,XArbitraryZVertical,0.05419026753322847,0.009346222100787453,-0.1403426938592487,0.9885747272297885,0.03368929401040077,-0.1045189127326012,-0.9939521551132202,0,0,0,-1
